block_number,location,Index,has_distraction,trial_type,word,color,correct_key,distraction_file_name,practice_trials_4X5.thisRepN,practice_trials_4X5.thisTrialN,practice_trials_4X5.thisN,practice_trials_4X5.thisIndex,blocks.thisRepN,blocks.thisTrialN,blocks.thisN,blocks.thisIndex,trials.thisRepN,trials.thisTrialN,trials.thisN,trials.thisIndex,key_stroop.started,key_stroop.stopped,key_stroop.keys,key_stroop.corr,key_stroop.rt,participant,date,expName,psychopyVersion,frameRate
b1,stroop_trial_condtions/b1.xlsx,0.350328137,0,congruent,GREEN,green,s,distractors/silence.wav,,,,,0,0,0,0,0,0,0,20,472.7756185,474.7808282,s,1,1.0408857,P19,2023-06-27_16h03.24.091,StroopExp,2022.2.5,60.34278321
b1,stroop_trial_condtions/b1.xlsx,0.870893567,0,congruent,RED,red,a,distractors/silence.wav,,,,,0,0,0,0,0,1,1,9,477.275684,479.2755581,a,1,1.0890567,P19,2023-06-27_16h03.24.091,StroopExp,2022.2.5,60.34278321
b1,stroop_trial_condtions/b1.xlsx,0.983636333,0,incongruent,RED,yellow,f,distractors/silence.wav,,,,,0,0,0,0,0,2,2,10,481.7717604,483.771015,f,1,1.3087643,P19,2023-06-27_16h03.24.091,StroopExp,2022.2.5,60.34278321
b1,stroop_trial_condtions/b1.xlsx,0.729684234,0,incongruent,BLUE,red,a,distractors/silence.wav,,,,,0,0,0,0,0,3,3,29,486.2695364,488.2691936,a,1,0.9475006,P19,2023-06-27_16h03.24.091,StroopExp,2022.2.5,60.34278321
b1,stroop_trial_condtions/b1.xlsx,0.419315371,0,congruent,RED,red,a,distractors/silence.wav,,,,,0,0,0,0,0,4,4,38,490.7850694,492.7844088,a,1,0.8696405,P19,2023-06-27_16h03.24.091,StroopExp,2022.2.5,60.34278321
b1,stroop_trial_condtions/b1.xlsx,0.571650714,0,incongruent,YELLOW,red,a,distractors/silence.wav,,,,,0,0,0,0,0,5,5,5,495.2832475,497.2840811,a,1,1.0676765,P19,2023-06-27_16h03.24.091,StroopExp,2022.2.5,60.34278321
b1,stroop_trial_condtions/b1.xlsx,0.543070637,0,incongruent,BLUE,yellow,f,distractors/silence.wav,,,,,0,0,0,0,0,6,6,1,499.7820245,501.7811921,f,1,1.1590075,P19,2023-06-27_16h03.24.091,StroopExp,2022.2.5,60.34278321
b1,stroop_trial_condtions/b1.xlsx,0.744564924,0,congruent,GREEN,green,s,distractors/silence.wav,,,,,0,0,0,0,0,7,7,42,504.2804843,506.2798238,s,1,1.0142068,P19,2023-06-27_16h03.24.091,StroopExp,2022.2.5,60.34278321
b1,stroop_trial_condtions/b1.xlsx,0.939662107,0,congruent,RED,red,a,distractors/silence.wav,,,,,0,0,0,0,0,8,8,21,508.7792176,510.7781917,a,1,1.0655472,P19,2023-06-27_16h03.24.091,StroopExp,2022.2.5,60.34278321
b1,stroop_trial_condtions/b1.xlsx,0.733681542,0,incongruent,BLUE,green,s,distractors/silence.wav,,,,,0,0,0,0,0,9,9,15,513.277574,515.2766779,s,1,1.4595591,P19,2023-06-27_16h03.24.091,StroopExp,2022.2.5,60.34278321
b1,stroop_trial_condtions/b1.xlsx,0.583196525,0,congruent,BLUE,blue,d,distractors/silence.wav,,,,,0,0,0,0,0,10,10,44,517.7765692,519.77621,d,1,1.4999399,P19,2023-06-27_16h03.24.091,StroopExp,2022.2.5,60.34278321
b1,stroop_trial_condtions/b1.xlsx,0.8328021,0,incongruent,GREEN,red,a,distractors/silence.wav,,,,,0,0,0,0,0,11,11,41,522.2759772,524.2762256,a,1,1.0933302,P19,2023-06-27_16h03.24.091,StroopExp,2022.2.5,60.34278321
b1,stroop_trial_condtions/b1.xlsx,0.199393364,0,congruent,YELLOW,yellow,f,distractors/silence.wav,,,,,0,0,0,0,0,12,12,23,526.7597892,528.7725663,f,1,1.3464975,P19,2023-06-27_16h03.24.091,StroopExp,2022.2.5,60.34278321
b1,stroop_trial_condtions/b1.xlsx,0.870406961,0,congruent,YELLOW,yellow,f,distractors/silence.wav,,,,,0,0,0,0,0,13,13,11,531.2714286,533.2721943,f,1,1.0392072,P19,2023-06-27_16h03.24.091,StroopExp,2022.2.5,60.34278321
b1,stroop_trial_condtions/b1.xlsx,0.256932032,0,congruent,BLUE,blue,d,distractors/silence.wav,,,,,0,0,0,0,0,14,14,30,535.7701479,537.7692318,d,1,1.0550663,P19,2023-06-27_16h03.24.091,StroopExp,2022.2.5,60.34278321
b1,stroop_trial_condtions/b1.xlsx,0.63243718,0,incongruent,RED,blue,d,distractors/silence.wav,,,,,0,0,0,0,0,15,15,19,540.2685236,542.2851398,d,1,0.9444226,P19,2023-06-27_16h03.24.091,StroopExp,2022.2.5,60.34278321
b1,stroop_trial_condtions/b1.xlsx,0.249190077,0,congruent,YELLOW,yellow,f,distractors/silence.wav,,,,,0,0,0,0,0,16,16,16,544.7830438,546.7875063,f,1,0.9503949,P19,2023-06-27_16h03.24.091,StroopExp,2022.2.5,60.34278321
b1,stroop_trial_condtions/b1.xlsx,0.625212421,0,congruent,GREEN,green,s,distractors/silence.wav,,,,,0,0,0,0,0,17,17,24,549.28216,551.2813803,s,1,0.9787443,P19,2023-06-27_16h03.24.091,StroopExp,2022.2.5,60.34278321
b1,stroop_trial_condtions/b1.xlsx,0.647841101,0,incongruent,GREEN,red,a,distractors/silence.wav,,,,,0,0,0,0,0,18,18,6,553.780532,555.7799082,a,1,1.1461871,P19,2023-06-27_16h03.24.091,StroopExp,2022.2.5,60.34278321
b1,stroop_trial_condtions/b1.xlsx,0.579491601,0,congruent,RED,red,a,distractors/silence.wav,,,,,0,0,0,0,0,19,19,47,558.2788511,560.2792343,a,1,1.0263768,P19,2023-06-27_16h03.24.091,StroopExp,2022.2.5,60.34278321
b1,stroop_trial_condtions/b1.xlsx,0.451597903,0,congruent,BLUE,blue,d,distractors/silence.wav,,,,,0,0,0,0,0,20,20,22,562.7777484,564.7766643,d,1,1.0575648,P19,2023-06-27_16h03.24.091,StroopExp,2022.2.5,60.34278321
b1,stroop_trial_condtions/b1.xlsx,0.191332161,0,congruent,GREEN,green,s,distractors/silence.wav,,,,,0,0,0,0,0,21,21,43,567.2768617,569.276993,s,1,1.0057452,P19,2023-06-27_16h03.24.091,StroopExp,2022.2.5,60.34278321
b1,stroop_trial_condtions/b1.xlsx,0.072914577,0,congruent,BLUE,blue,d,distractors/silence.wav,,,,,0,0,0,0,0,22,22,3,571.7770277,573.7767657,d,1,1.2343693,P19,2023-06-27_16h03.24.091,StroopExp,2022.2.5,60.34278321
b1,stroop_trial_condtions/b1.xlsx,0.493018261,0,congruent,BLUE,blue,d,distractors/silence.wav,,,,,0,0,0,0,0,23,23,7,576.2731523,578.2771219,d,1,1.0536593,P19,2023-06-27_16h03.24.091,StroopExp,2022.2.5,60.34278321
b1,stroop_trial_condtions/b1.xlsx,0.251874896,0,incongruent,GREEN,blue,d,distractors/silence.wav,,,,,0,0,0,0,0,24,24,37,580.7715455,582.7709711,d,1,0.9336238,P19,2023-06-27_16h03.24.091,StroopExp,2022.2.5,60.34278321
b1,stroop_trial_condtions/b1.xlsx,0.935097843,0,incongruent,RED,blue,d,distractors/silence.wav,,,,,0,0,0,0,0,25,25,17,585.2701016,587.2858896,d,1,0.7029582,P19,2023-06-27_16h03.24.091,StroopExp,2022.2.5,60.34278321
b1,stroop_trial_condtions/b1.xlsx,0.680507855,0,incongruent,GREEN,yellow,f,distractors/silence.wav,,,,,0,0,0,0,0,26,26,33,589.7848921,591.7839796,f,1,1.069677,P19,2023-06-27_16h03.24.091,StroopExp,2022.2.5,60.34278321
b1,stroop_trial_condtions/b1.xlsx,0.976569181,0,incongruent,YELLOW,blue,d,distractors/silence.wav,,,,,0,0,0,0,0,27,27,39,594.2997092,596.2995016,d,1,0.9389515,P19,2023-06-27_16h03.24.091,StroopExp,2022.2.5,60.34278321
b1,stroop_trial_condtions/b1.xlsx,0.976942146,0,congruent,BLUE,blue,d,distractors/silence.wav,,,,,0,0,0,0,0,28,28,13,598.7987365,600.7980358,d,1,0.8882515,P19,2023-06-27_16h03.24.091,StroopExp,2022.2.5,60.34278321
b1,stroop_trial_condtions/b1.xlsx,0.708976038,0,congruent,GREEN,green,s,distractors/silence.wav,,,,,0,0,0,0,0,29,29,8,603.2804526,605.280738,s,1,1.0729756,P19,2023-06-27_16h03.24.091,StroopExp,2022.2.5,60.34278321
b1,stroop_trial_condtions/b1.xlsx,0.922953448,0,congruent,RED,red,a,distractors/silence.wav,,,,,0,0,0,0,0,30,30,40,607.7792607,609.7783832,a,1,1.0986717,P19,2023-06-27_16h03.24.091,StroopExp,2022.2.5,60.34278321
b1,stroop_trial_condtions/b1.xlsx,0.237396997,0,incongruent,GREEN,blue,d,distractors/silence.wav,,,,,0,0,0,0,0,31,31,18,612.2776128,614.2775461,d,1,1.1050578,P19,2023-06-27_16h03.24.091,StroopExp,2022.2.5,60.34278321
b1,stroop_trial_condtions/b1.xlsx,0.971858016,0,congruent,RED,red,a,distractors/silence.wav,,,,,0,0,0,0,0,32,32,0,616.7776716,618.7777886,a,1,0.9790773,P19,2023-06-27_16h03.24.091,StroopExp,2022.2.5,60.34278321
b1,stroop_trial_condtions/b1.xlsx,0.896952266,0,incongruent,YELLOW,blue,d,distractors/silence.wav,,,,,0,0,0,0,0,33,33,25,621.27788,623.2788279,d,1,1.1534012,P19,2023-06-27_16h03.24.091,StroopExp,2022.2.5,60.34278321
b1,stroop_trial_condtions/b1.xlsx,0.830948331,0,incongruent,BLUE,green,s,distractors/silence.wav,,,,,0,0,0,0,0,34,34,46,625.7731438,627.7721433,s,1,0.9682856,P19,2023-06-27_16h03.24.091,StroopExp,2022.2.5,60.34278321
b1,stroop_trial_condtions/b1.xlsx,0.004767374,0,incongruent,RED,green,s,distractors/silence.wav,,,,,0,0,0,0,0,35,35,14,630.2714195,632.2709619,s,1,0.6453023,P19,2023-06-27_16h03.24.091,StroopExp,2022.2.5,60.34278321
b1,stroop_trial_condtions/b1.xlsx,0.077117098,0,incongruent,BLUE,red,a,distractors/silence.wav,,,,,0,0,0,0,0,36,36,35,634.7697604,636.7690286,a,1,0.9888651,P19,2023-06-27_16h03.24.091,StroopExp,2022.2.5,60.34278321
b1,stroop_trial_condtions/b1.xlsx,0.936669537,0,incongruent,GREEN,yellow,f,distractors/silence.wav,,,,,0,0,0,0,0,37,37,34,639.2686965,641.2688824,f,1,1.1504955,P19,2023-06-27_16h03.24.091,StroopExp,2022.2.5,60.34278321
b1,stroop_trial_condtions/b1.xlsx,0.548087945,0,congruent,YELLOW,yellow,f,distractors/silence.wav,,,,,0,0,0,0,0,38,38,32,643.7833086,645.7830665,f,1,0.7159627,P19,2023-06-27_16h03.24.091,StroopExp,2022.2.5,60.34278321
b1,stroop_trial_condtions/b1.xlsx,0.542994022,0,congruent,YELLOW,yellow,f,distractors/silence.wav,,,,,0,0,0,0,0,39,39,28,648.2817346,650.2811351,f,1,0.6437989,P19,2023-06-27_16h03.24.091,StroopExp,2022.2.5,60.34278321
b1,stroop_trial_condtions/b1.xlsx,0.027168618,0,incongruent,RED,yellow,f,distractors/silence.wav,,,,,0,0,0,0,0,40,40,27,652.8138779,654.8133674,f,1,0.846924,P19,2023-06-27_16h03.24.091,StroopExp,2022.2.5,60.34278321
b1,stroop_trial_condtions/b1.xlsx,0.01936095,0,incongruent,YELLOW,green,s,distractors/silence.wav,,,,,0,0,0,0,0,41,41,2,657.3123396,659.3117835,s,1,1.005065,P19,2023-06-27_16h03.24.091,StroopExp,2022.2.5,60.34278321
b1,stroop_trial_condtions/b1.xlsx,0.660435133,0,congruent,GREEN,green,s,distractors/silence.wav,,,,,0,0,0,0,0,42,42,4,661.8115581,663.8114837,s,1,0.6771901,P19,2023-06-27_16h03.24.091,StroopExp,2022.2.5,60.34278321
b1,stroop_trial_condtions/b1.xlsx,0.401782254,0,incongruent,YELLOW,red,a,distractors/silence.wav,,,,,0,0,0,0,0,43,43,12,666.3119207,668.3118053,a,1,1.116691,P19,2023-06-27_16h03.24.091,StroopExp,2022.2.5,60.34278321
b1,stroop_trial_condtions/b1.xlsx,0.667196906,0,incongruent,RED,green,s,distractors/silence.wav,,,,,0,0,0,0,0,44,44,36,670.8083393,,s,1,1.3242773,P19,2023-06-27_16h03.24.091,StroopExp,2022.2.5,60.34278321
b1,stroop_trial_condtions/b1.xlsx,0.68696849,0,congruent,YELLOW,yellow,f,distractors/silence.wav,,,,,0,0,0,0,0,45,45,45,675.3226121,677.3222907,f,1,1.3984194,P19,2023-06-27_16h03.24.091,StroopExp,2022.2.5,60.34278321
b1,stroop_trial_condtions/b1.xlsx,0.153196184,0,incongruent,YELLOW,green,s,distractors/silence.wav,,,,,0,0,0,0,0,46,46,31,679.8212668,681.8207701,s,1,0.9293904,P19,2023-06-27_16h03.24.091,StroopExp,2022.2.5,60.34278321
b1,stroop_trial_condtions/b1.xlsx,0.674408476,0,incongruent,BLUE,yellow,f,distractors/silence.wav,,,,,0,0,0,0,0,47,47,26,684.3363814,686.3362365,f,1,0.972277,P19,2023-06-27_16h03.24.091,StroopExp,2022.2.5,60.34278321
b2,stroop_trial_condtions/b2.xlsx,0.531759185,1,congruent,YELLOW,yellow,f,distractors/2.wav,,,,,0,1,1,1,0,0,0,34,758.2965425,760.3236572,f,1,1.1290201,P19,2023-06-27_16h03.24.091,StroopExp,2022.2.5,60.34278321
b2,stroop_trial_condtions/b2.xlsx,0.164948028,1,congruent,GREEN,green,s,distractors/4.wav,,,,,0,1,1,1,0,1,1,23,762.7798008,764.8084597,s,1,1.1920618,P19,2023-06-27_16h03.24.091,StroopExp,2022.2.5,60.34278321
b2,stroop_trial_condtions/b2.xlsx,0.196366522,1,incongruent,GREEN,red,a,distractors/1.wav,,,,,0,1,1,1,0,2,2,9,767.2911787,769.2910927,a,1,1.3502348,P19,2023-06-27_16h03.24.091,StroopExp,2022.2.5,60.34278321
b2,stroop_trial_condtions/b2.xlsx,0.324070625,1,congruent,YELLOW,yellow,f,distractors/3.wav,,,,,0,1,1,1,0,3,3,15,771.8067956,773.8071643,f,1,1.1879168,P19,2023-06-27_16h03.24.091,StroopExp,2022.2.5,60.34278321
b2,stroop_trial_condtions/b2.xlsx,0.50307865,1,incongruent,YELLOW,green,s,distractors/4.wav,,,,,0,1,1,1,0,4,4,19,776.3054874,778.3050437,s,1,0.9420256,P19,2023-06-27_16h03.24.091,StroopExp,2022.2.5,60.34278321
b2,stroop_trial_condtions/b2.xlsx,0.492685632,1,congruent,RED,red,a,distractors/4.wav,,,,,0,1,1,1,0,5,5,27,780.8213462,,a,1,1.0332316,P19,2023-06-27_16h03.24.091,StroopExp,2022.2.5,60.34278321
b2,stroop_trial_condtions/b2.xlsx,0.973471425,1,congruent,BLUE,blue,d,distractors/2.wav,,,,,0,1,1,1,0,6,6,1,785.3358129,787.3352106,d,1,1.0948191,P19,2023-06-27_16h03.24.091,StroopExp,2022.2.5,60.34278321
b2,stroop_trial_condtions/b2.xlsx,0.483274464,1,congruent,YELLOW,yellow,f,distractors/1.wav,,,,,0,1,1,1,0,7,7,24,789.834461,791.8334726,f,1,0.9566845,P19,2023-06-27_16h03.24.091,StroopExp,2022.2.5,60.34278321
b2,stroop_trial_condtions/b2.xlsx,0.107154682,1,incongruent,BLUE,green,s,distractors/3.wav,,,,,0,1,1,1,0,8,8,33,794.3494542,796.3487581,s,1,1.0170536,P19,2023-06-27_16h03.24.091,StroopExp,2022.2.5,60.34278321
b2,stroop_trial_condtions/b2.xlsx,0.065023824,1,incongruent,GREEN,yellow,f,distractors/1.wav,,,,,0,1,1,1,0,9,9,7,798.8479838,800.8474883,f,1,1.1128577,P19,2023-06-27_16h03.24.091,StroopExp,2022.2.5,60.34278321
b2,stroop_trial_condtions/b2.xlsx,0.42490795,1,congruent,GREEN,green,s,distractors/2.wav,,,,,0,1,1,1,0,10,10,4,803.34715,805.3470202,s,1,0.9662535,P19,2023-06-27_16h03.24.091,StroopExp,2022.2.5,60.34278321
b2,stroop_trial_condtions/b2.xlsx,0.108398141,1,incongruent,RED,green,s,distractors/1.wav,,,,,0,1,1,1,0,11,11,14,807.8305156,809.8306194,s,1,1.1509449,P19,2023-06-27_16h03.24.091,StroopExp,2022.2.5,60.34278321
b2,stroop_trial_condtions/b2.xlsx,0.796267692,1,incongruent,RED,blue,d,distractors/4.wav,,,,,0,1,1,1,0,12,12,46,812.326684,814.3260394,d,1,0.9925991,P19,2023-06-27_16h03.24.091,StroopExp,2022.2.5,60.34278321
b2,stroop_trial_condtions/b2.xlsx,0.838430071,1,congruent,RED,red,a,distractors/1.wav,,,,,0,1,1,1,0,13,13,25,816.8416424,818.8411943,a,1,1.0615763,P19,2023-06-27_16h03.24.091,StroopExp,2022.2.5,60.34278321
b2,stroop_trial_condtions/b2.xlsx,0.733185206,1,incongruent,GREEN,blue,d,distractors/4.wav,,,,,0,1,1,1,0,14,14,28,821.3400435,823.3396253,d,1,1.076965,P19,2023-06-27_16h03.24.091,StroopExp,2022.2.5,60.34278321
b2,stroop_trial_condtions/b2.xlsx,0.340063562,1,congruent,YELLOW,yellow,f,distractors/3.wav,,,,,0,1,1,1,0,15,15,12,825.8552588,827.8546318,f,1,0.9754526,P19,2023-06-27_16h03.24.091,StroopExp,2022.2.5,60.34278321
b2,stroop_trial_condtions/b2.xlsx,0.211743172,1,congruent,YELLOW,yellow,f,distractors/2.wav,,,,,0,1,1,1,0,16,16,38,830.3707676,,f,1,0.6527627,P19,2023-06-27_16h03.24.091,StroopExp,2022.2.5,60.34278321
b2,stroop_trial_condtions/b2.xlsx,0.361479091,1,congruent,GREEN,green,s,distractors/1.wav,,,,,0,1,1,1,0,17,17,17,834.8867212,,s,1,1.2360071,P19,2023-06-27_16h03.24.091,StroopExp,2022.2.5,60.34278321
b2,stroop_trial_condtions/b2.xlsx,0.231567411,1,congruent,GREEN,green,s,distractors/4.wav,,,,,0,1,1,1,0,18,18,8,839.4008039,841.4004549,s,1,0.822224,P19,2023-06-27_16h03.24.091,StroopExp,2022.2.5,60.34278321
b2,stroop_trial_condtions/b2.xlsx,0.88570862,1,congruent,BLUE,blue,d,distractors/1.wav,,,,,0,1,1,1,0,19,19,16,843.9161321,,d,1,0.9865785,P19,2023-06-27_16h03.24.091,StroopExp,2022.2.5,60.34278321
b2,stroop_trial_condtions/b2.xlsx,0.522476173,1,incongruent,RED,blue,d,distractors/1.wav,,,,,0,1,1,1,0,20,20,20,848.4311352,850.431046,d,1,0.7643491,P19,2023-06-27_16h03.24.091,StroopExp,2022.2.5,60.34278321
b2,stroop_trial_condtions/b2.xlsx,0.011991742,1,congruent,RED,red,a,distractors/4.wav,,,,,0,1,1,1,0,21,21,42,852.914615,854.9143859,a,1,1.4060591,P19,2023-06-27_16h03.24.091,StroopExp,2022.2.5,60.34278321
b2,stroop_trial_condtions/b2.xlsx,0.155643688,1,incongruent,YELLOW,blue,d,distractors/3.wav,,,,,0,1,1,1,0,22,22,39,857.4145608,859.4276489,d,1,1.0933871,P19,2023-06-27_16h03.24.091,StroopExp,2022.2.5,60.34278321
b2,stroop_trial_condtions/b2.xlsx,0.144418396,1,congruent,GREEN,green,s,distractors/1.wav,,,,,0,1,1,1,0,23,23,43,861.926384,863.9260433,s,1,1.1543023,P19,2023-06-27_16h03.24.091,StroopExp,2022.2.5,60.34278321
b2,stroop_trial_condtions/b2.xlsx,0.128195372,1,incongruent,YELLOW,red,a,distractors/3.wav,,,,,0,1,1,1,0,24,24,35,866.4417322,868.4422821,a,1,1.0738622,P19,2023-06-27_16h03.24.091,StroopExp,2022.2.5,60.34278321
b2,stroop_trial_condtions/b2.xlsx,0.500798324,1,incongruent,BLUE,green,s,distractors/1.wav,,,,,0,1,1,1,0,25,25,18,870.9403208,872.9398627,s,1,0.9584146,P19,2023-06-27_16h03.24.091,StroopExp,2022.2.5,60.34278321
b2,stroop_trial_condtions/b2.xlsx,0.04164908,1,incongruent,RED,yellow,f,distractors/4.wav,,,,,0,1,1,1,0,26,26,2,875.4386371,877.4388191,f,1,1.1806153,P19,2023-06-27_16h03.24.091,StroopExp,2022.2.5,60.34278321
b2,stroop_trial_condtions/b2.xlsx,0.034332485,1,incongruent,YELLOW,red,a,distractors/2.wav,,,,,0,1,1,1,0,27,27,13,879.9371916,881.9368168,a,1,0.9903646,P19,2023-06-27_16h03.24.091,StroopExp,2022.2.5,60.34278321
b2,stroop_trial_condtions/b2.xlsx,0.087696882,1,incongruent,RED,green,s,distractors/3.wav,,,,,0,1,1,1,0,28,28,47,884.4521225,886.4518614,s,1,0.9507635,P19,2023-06-27_16h03.24.091,StroopExp,2022.2.5,60.34278321
b2,stroop_trial_condtions/b2.xlsx,0.330833954,1,incongruent,BLUE,yellow,f,distractors/4.wav,,,,,0,1,1,1,0,29,29,5,888.9671623,890.9669059,f,1,1.0335842,P19,2023-06-27_16h03.24.091,StroopExp,2022.2.5,60.34278321
b2,stroop_trial_condtions/b2.xlsx,0.713195007,1,congruent,GREEN,green,s,distractors/2.wav,,,,,0,1,1,1,0,30,30,10,893.4827225,895.482074,s,1,0.8999444,P19,2023-06-27_16h03.24.091,StroopExp,2022.2.5,60.34278321
b2,stroop_trial_condtions/b2.xlsx,0.666141953,1,congruent,RED,red,a,distractors/2.wav,,,,,0,1,1,1,0,31,31,3,897.9818607,899.982239,a,1,0.9553456,P19,2023-06-27_16h03.24.091,StroopExp,2022.2.5,60.34278321
b2,stroop_trial_condtions/b2.xlsx,0.488971465,1,incongruent,BLUE,red,a,distractors/4.wav,,,,,0,1,1,1,0,32,32,29,902.4652224,904.4650876,a,1,0.9057098,P19,2023-06-27_16h03.24.091,StroopExp,2022.2.5,60.34278321
b2,stroop_trial_condtions/b2.xlsx,0.828978616,1,incongruent,RED,yellow,f,distractors/4.wav,,,,,0,1,1,1,0,33,33,31,906.9616439,,f,1,1.0851714,P19,2023-06-27_16h03.24.091,StroopExp,2022.2.5,60.34278321
b2,stroop_trial_condtions/b2.xlsx,0.858613787,1,incongruent,YELLOW,blue,d,distractors/3.wav,,,,,0,1,1,1,0,34,34,44,911.4763554,913.4755111,d,1,1.1144178,P19,2023-06-27_16h03.24.091,StroopExp,2022.2.5,60.34278321
b2,stroop_trial_condtions/b2.xlsx,0.814062715,1,congruent,BLUE,blue,d,distractors/2.wav,,,,,0,1,1,1,0,35,35,36,915.9917014,917.9911053,d,1,0.6710593,P19,2023-06-27_16h03.24.091,StroopExp,2022.2.5,60.34278321
b2,stroop_trial_condtions/b2.xlsx,0.966821302,1,congruent,BLUE,blue,d,distractors/2.wav,,,,,0,1,1,1,0,36,36,21,920.4900873,922.4892128,d,1,0.636772,P19,2023-06-27_16h03.24.091,StroopExp,2022.2.5,60.34278321
b2,stroop_trial_condtions/b2.xlsx,0.767680624,1,congruent,BLUE,blue,d,distractors/3.wav,,,,,0,1,1,1,0,37,37,32,924.989106,,d,1,0.6264962,P19,2023-06-27_16h03.24.091,StroopExp,2022.2.5,60.34278321
b2,stroop_trial_condtions/b2.xlsx,0.566650633,1,incongruent,GREEN,yellow,f,distractors/3.wav,,,,,0,1,1,1,0,38,38,0,929.5038342,931.5030146,f,1,1.1165401,P19,2023-06-27_16h03.24.091,StroopExp,2022.2.5,60.34278321
b2,stroop_trial_condtions/b2.xlsx,0.329333187,1,incongruent,YELLOW,green,s,distractors/2.wav,,,,,0,1,1,1,0,39,39,6,934.0019053,936.0017122,s,1,0.8789706,P19,2023-06-27_16h03.24.091,StroopExp,2022.2.5,60.34278321
b2,stroop_trial_condtions/b2.xlsx,0.813514666,1,incongruent,GREEN,red,a,distractors/3.wav,,,,,0,1,1,1,0,40,40,40,938.5006809,940.5001928,a,1,1.0261081,P19,2023-06-27_16h03.24.091,StroopExp,2022.2.5,60.34278321
b2,stroop_trial_condtions/b2.xlsx,0.067305336,1,incongruent,BLUE,yellow,f,distractors/3.wav,,,,,0,1,1,1,0,41,41,26,942.9992041,944.9992138,f,1,0.9917763,P19,2023-06-27_16h03.24.091,StroopExp,2022.2.5,60.34278321
b2,stroop_trial_condtions/b2.xlsx,0.629589964,1,congruent,RED,red,a,distractors/2.wav,,,,,0,1,1,1,0,42,42,11,947.4828239,949.4825787,a,1,1.0496096,P19,2023-06-27_16h03.24.091,StroopExp,2022.2.5,60.34278321
b2,stroop_trial_condtions/b2.xlsx,0.900567422,1,congruent,BLUE,blue,d,distractors/2.wav,,,,,0,1,1,1,0,43,43,30,951.9658887,953.9792565,d,1,0.9002657,P19,2023-06-27_16h03.24.091,StroopExp,2022.2.5,60.34278321
b2,stroop_trial_condtions/b2.xlsx,0.295023129,1,incongruent,BLUE,red,a,distractors/1.wav,,,,,0,1,1,1,0,44,44,37,956.4780903,958.4775631,a,1,0.9947134,P19,2023-06-27_16h03.24.091,StroopExp,2022.2.5,60.34278321
b2,stroop_trial_condtions/b2.xlsx,0.090889572,1,congruent,RED,red,a,distractors/3.wav,,,,,0,1,1,1,0,45,45,41,960.9932486,962.9927876,a,1,0.8338446,P19,2023-06-27_16h03.24.091,StroopExp,2022.2.5,60.34278321
b2,stroop_trial_condtions/b2.xlsx,0.776926078,1,incongruent,GREEN,blue,d,distractors/4.wav,,,,,0,1,1,1,0,46,46,22,965.4915324,967.4910701,d,1,1.1873336,P19,2023-06-27_16h03.24.091,StroopExp,2022.2.5,60.34278321
b2,stroop_trial_condtions/b2.xlsx,0.25539718,1,congruent,YELLOW,yellow,f,distractors/1.wav,,,,,0,1,1,1,0,47,47,45,970.0066734,972.0063159,f,1,0.9246437,P19,2023-06-27_16h03.24.091,StroopExp,2022.2.5,60.34278321
b3,stroop_trial_condtions/b1.xlsx,0.191332161,0,congruent,GREEN,green,s,distractors/silence.wav,,,,,0,2,2,2,0,0,0,43,1044.667345,1046.667358,s,1,1.003601,P19,2023-06-27_16h03.24.091,StroopExp,2022.2.5,60.34278321
b3,stroop_trial_condtions/b1.xlsx,0.579491601,0,congruent,RED,red,a,distractors/silence.wav,,,,,0,2,2,2,0,1,1,47,1049.163235,1051.162875,a,1,1.1639503,P19,2023-06-27_16h03.24.091,StroopExp,2022.2.5,60.34278321
b3,stroop_trial_condtions/b1.xlsx,0.153196184,0,incongruent,YELLOW,green,s,distractors/silence.wav,,,,,0,2,2,2,0,2,2,31,1053.678433,1055.678061,s,1,1.2585232,P19,2023-06-27_16h03.24.091,StroopExp,2022.2.5,60.34278321
b3,stroop_trial_condtions/b1.xlsx,0.733681542,0,incongruent,BLUE,green,s,distractors/silence.wav,,,,,0,2,2,2,0,3,3,15,1058.19356,1060.193218,s,1,0.959949,P19,2023-06-27_16h03.24.091,StroopExp,2022.2.5,60.34278321
b3,stroop_trial_condtions/b1.xlsx,0.939662107,0,congruent,RED,red,a,distractors/silence.wav,,,,,0,2,2,2,0,4,4,21,1062.692046,1064.691302,a,1,1.0008945,P19,2023-06-27_16h03.24.091,StroopExp,2022.2.5,60.34278321
b3,stroop_trial_condtions/b1.xlsx,0.870893567,0,congruent,RED,red,a,distractors/silence.wav,,,,,0,2,2,2,0,5,5,9,1067.206901,1069.206272,a,1,0.9300349,P19,2023-06-27_16h03.24.091,StroopExp,2022.2.5,60.34278321
b3,stroop_trial_condtions/b1.xlsx,0.660435133,0,congruent,GREEN,green,s,distractors/silence.wav,,,,,0,2,2,2,0,6,6,4,1071.705916,1073.705306,s,1,1.137469,P19,2023-06-27_16h03.24.091,StroopExp,2022.2.5,60.34278321
b3,stroop_trial_condtions/b1.xlsx,0.830948331,0,incongruent,BLUE,green,s,distractors/silence.wav,,,,,0,2,2,2,0,7,7,46,1076.220491,1078.220351,s,1,0.722582,P19,2023-06-27_16h03.24.091,StroopExp,2022.2.5,60.34278321
b3,stroop_trial_condtions/b1.xlsx,0.922953448,0,congruent,RED,red,a,distractors/silence.wav,,,,,0,2,2,2,0,8,8,40,1080.719469,1082.718898,a,1,1.0101766,P19,2023-06-27_16h03.24.091,StroopExp,2022.2.5,60.34278321
b3,stroop_trial_condtions/b1.xlsx,0.256932032,0,congruent,BLUE,blue,d,distractors/silence.wav,,,,,0,2,2,2,0,9,9,30,1085.234583,1087.234871,d,1,1.2942868,P19,2023-06-27_16h03.24.091,StroopExp,2022.2.5,60.34278321
b3,stroop_trial_condtions/b1.xlsx,0.729684234,0,incongruent,BLUE,red,a,distractors/silence.wav,,,,,0,2,2,2,0,10,10,29,1089.718075,1091.717631,a,1,1.0930338,P19,2023-06-27_16h03.24.091,StroopExp,2022.2.5,60.34278321
b3,stroop_trial_condtions/b1.xlsx,0.896952266,0,incongruent,YELLOW,blue,d,distractors/silence.wav,,,,,0,2,2,2,0,11,11,25,1094.201668,1096.21834,d,1,1.1497859,P19,2023-06-27_16h03.24.091,StroopExp,2022.2.5,60.34278321
b3,stroop_trial_condtions/b1.xlsx,0.667196906,0,incongruent,RED,green,s,distractors/silence.wav,,,,,0,2,2,2,0,12,12,36,1098.713181,1100.712552,s,1,0.9296464,P19,2023-06-27_16h03.24.091,StroopExp,2022.2.5,60.34278321
b3,stroop_trial_condtions/b1.xlsx,0.01936095,0,incongruent,YELLOW,green,s,distractors/silence.wav,,,,,0,2,2,2,0,13,13,2,1103.212011,1105.211337,s,1,0.8028944,P19,2023-06-27_16h03.24.091,StroopExp,2022.2.5,60.34278321
b3,stroop_trial_condtions/b1.xlsx,0.936669537,0,incongruent,GREEN,yellow,f,distractors/silence.wav,,,,,0,2,2,2,0,14,14,34,1107.726828,1109.726224,f,1,1.1179571,P19,2023-06-27_16h03.24.091,StroopExp,2022.2.5,60.34278321
b3,stroop_trial_condtions/b1.xlsx,0.077117098,0,incongruent,BLUE,red,a,distractors/silence.wav,,,,,0,2,2,2,0,15,15,35,1112.242361,,a,1,0.9750197,P19,2023-06-27_16h03.24.091,StroopExp,2022.2.5,60.34278321
b3,stroop_trial_condtions/b1.xlsx,0.870406961,0,congruent,YELLOW,yellow,f,distractors/silence.wav,,,,,0,2,2,2,0,16,16,11,1116.757221,1118.756354,f,1,1.041737,P19,2023-06-27_16h03.24.091,StroopExp,2022.2.5,60.34278321
b3,stroop_trial_condtions/b1.xlsx,0.63243718,0,incongruent,RED,blue,d,distractors/silence.wav,,,,,0,2,2,2,0,17,17,19,1121.272535,1123.271863,d,1,1.1606108,P19,2023-06-27_16h03.24.091,StroopExp,2022.2.5,60.34278321
b3,stroop_trial_condtions/b1.xlsx,0.971858016,0,congruent,RED,red,a,distractors/silence.wav,,,,,0,2,2,2,0,18,18,0,1125.771029,1127.770152,a,1,1.2119758,P19,2023-06-27_16h03.24.091,StroopExp,2022.2.5,60.34278321
b3,stroop_trial_condtions/b1.xlsx,0.027168618,0,incongruent,RED,yellow,f,distractors/silence.wav,,,,,0,2,2,2,0,19,19,27,1130.285937,1132.285319,f,1,1.1937367,P19,2023-06-27_16h03.24.091,StroopExp,2022.2.5,60.34278321
b3,stroop_trial_condtions/b1.xlsx,0.199393364,0,congruent,YELLOW,yellow,f,distractors/silence.wav,,,,,0,2,2,2,0,20,20,23,1134.78515,1136.785435,f,1,0.6798438,P19,2023-06-27_16h03.24.091,StroopExp,2022.2.5,60.34278321
b3,stroop_trial_condtions/b1.xlsx,0.935097843,0,incongruent,RED,blue,d,distractors/silence.wav,,,,,0,2,2,2,0,21,21,17,1139.268714,1141.26846,d,1,1.0840609,P19,2023-06-27_16h03.24.091,StroopExp,2022.2.5,60.34278321
b3,stroop_trial_condtions/b1.xlsx,0.625212421,0,congruent,GREEN,green,s,distractors/silence.wav,,,,,0,2,2,2,0,22,22,24,1143.765099,,s,1,0.99044,P19,2023-06-27_16h03.24.091,StroopExp,2022.2.5,60.34278321
b3,stroop_trial_condtions/b1.xlsx,0.251874896,0,incongruent,GREEN,blue,d,distractors/silence.wav,,,,,0,2,2,2,0,23,23,37,1148.279438,1150.279362,d,1,1.1354047,P19,2023-06-27_16h03.24.091,StroopExp,2022.2.5,60.34278321
b3,stroop_trial_condtions/b1.xlsx,0.983636333,0,incongruent,RED,yellow,f,distractors/silence.wav,,,,,0,2,2,2,0,24,24,10,1152.778831,,f,1,0.964137,P19,2023-06-27_16h03.24.091,StroopExp,2022.2.5,60.34278321
b3,stroop_trial_condtions/b1.xlsx,0.976569181,0,incongruent,YELLOW,blue,d,distractors/silence.wav,,,,,0,2,2,2,0,25,25,39,1157.276852,1159.276061,d,1,1.086801,P19,2023-06-27_16h03.24.091,StroopExp,2022.2.5,60.34278321
b3,stroop_trial_condtions/b1.xlsx,0.548087945,0,congruent,YELLOW,yellow,f,distractors/silence.wav,,,,,0,2,2,2,0,26,26,32,1161.775565,1163.774789,f,1,1.0000741,P19,2023-06-27_16h03.24.091,StroopExp,2022.2.5,60.34278321
b3,stroop_trial_condtions/b1.xlsx,0.8328021,0,incongruent,GREEN,red,a,distractors/silence.wav,,,,,0,2,2,2,0,27,27,41,1166.273951,1168.27321,a,1,1.1370926,P19,2023-06-27_16h03.24.091,StroopExp,2022.2.5,60.34278321
b3,stroop_trial_condtions/b1.xlsx,0.401782254,0,incongruent,YELLOW,red,a,distractors/silence.wav,,,,,0,2,2,2,0,28,28,12,1170.80572,1172.805139,a,1,1.0355871,P19,2023-06-27_16h03.24.091,StroopExp,2022.2.5,60.34278321
b3,stroop_trial_condtions/b1.xlsx,0.571650714,0,incongruent,YELLOW,red,a,distractors/silence.wav,,,,,0,2,2,2,0,29,29,5,1175.320839,1177.320263,a,1,0.9522235,P19,2023-06-27_16h03.24.091,StroopExp,2022.2.5,60.34278321
b3,stroop_trial_condtions/b1.xlsx,0.744564924,0,congruent,GREEN,green,s,distractors/silence.wav,,,,,0,2,2,2,0,30,30,42,1179.835987,1181.835827,s,1,1.0332796,P19,2023-06-27_16h03.24.091,StroopExp,2022.2.5,60.34278321
b3,stroop_trial_condtions/b1.xlsx,0.708976038,0,congruent,GREEN,green,s,distractors/silence.wav,,,,,0,2,2,2,0,31,31,8,1184.319273,1186.333752,s,1,0.9243799,P19,2023-06-27_16h03.24.091,StroopExp,2022.2.5,60.34278321
b3,stroop_trial_condtions/b1.xlsx,0.542994022,0,congruent,YELLOW,yellow,f,distractors/silence.wav,,,,,0,2,2,2,0,32,32,28,1188.802832,1190.799012,f,1,1.1664704,P19,2023-06-27_16h03.24.091,StroopExp,2022.2.5,60.34278321
b3,stroop_trial_condtions/b1.xlsx,0.493018261,0,congruent,BLUE,blue,d,distractors/silence.wav,,,,,0,2,2,2,0,33,33,7,1193.297858,1195.297456,d,1,0.8771913,P19,2023-06-27_16h03.24.091,StroopExp,2022.2.5,60.34278321
b3,stroop_trial_condtions/b1.xlsx,0.543070637,0,incongruent,BLUE,yellow,f,distractors/silence.wav,,,,,0,2,2,2,0,34,34,1,1197.813269,1199.812348,f,1,1.2081981,P19,2023-06-27_16h03.24.091,StroopExp,2022.2.5,60.34278321
b3,stroop_trial_condtions/b1.xlsx,0.004767374,0,incongruent,RED,green,s,distractors/silence.wav,,,,,0,2,2,2,0,35,35,14,1202.31174,1204.311634,s,1,1.0771567,P19,2023-06-27_16h03.24.091,StroopExp,2022.2.5,60.34278321
b3,stroop_trial_condtions/b1.xlsx,0.350328137,0,congruent,GREEN,green,s,distractors/silence.wav,,,,,0,2,2,2,0,36,36,20,1206.810122,1208.809615,s,1,0.7975282,P19,2023-06-27_16h03.24.091,StroopExp,2022.2.5,60.34278321
b3,stroop_trial_condtions/b1.xlsx,0.680507855,0,incongruent,GREEN,yellow,f,distractors/silence.wav,,,,,0,2,2,2,0,37,37,33,1211.325366,1213.324714,f,1,1.1740716,P19,2023-06-27_16h03.24.091,StroopExp,2022.2.5,60.34278321
b3,stroop_trial_condtions/b1.xlsx,0.072914577,0,congruent,BLUE,blue,d,distractors/silence.wav,,,,,0,2,2,2,0,38,38,3,1215.823839,1217.822989,d,1,0.8273703,P19,2023-06-27_16h03.24.091,StroopExp,2022.2.5,60.34278321
b3,stroop_trial_condtions/b1.xlsx,0.583196525,0,congruent,BLUE,blue,d,distractors/silence.wav,,,,,0,2,2,2,0,39,39,44,1220.339307,,d,1,0.7037983,P19,2023-06-27_16h03.24.091,StroopExp,2022.2.5,60.34278321
b3,stroop_trial_condtions/b1.xlsx,0.647841101,0,incongruent,GREEN,red,a,distractors/silence.wav,,,,,0,2,2,2,0,40,40,6,1224.854337,,a,1,0.9307614,P19,2023-06-27_16h03.24.091,StroopExp,2022.2.5,60.34278321
b3,stroop_trial_condtions/b1.xlsx,0.451597903,0,congruent,BLUE,blue,d,distractors/silence.wav,,,,,0,2,2,2,0,41,41,22,1229.353225,1231.353298,d,1,1.0726978,P19,2023-06-27_16h03.24.091,StroopExp,2022.2.5,60.34278321
b3,stroop_trial_condtions/b1.xlsx,0.249190077,0,congruent,YELLOW,yellow,f,distractors/silence.wav,,,,,0,2,2,2,0,42,42,16,1233.836782,1235.836634,f,1,0.9501087,P19,2023-06-27_16h03.24.091,StroopExp,2022.2.5,60.34278321
b3,stroop_trial_condtions/b1.xlsx,0.237396997,0,incongruent,GREEN,blue,d,distractors/silence.wav,,,,,0,2,2,2,0,43,43,18,1238.33301,,d,1,0.9900926,P19,2023-06-27_16h03.24.091,StroopExp,2022.2.5,60.34278321
b3,stroop_trial_condtions/b1.xlsx,0.419315371,0,congruent,RED,red,a,distractors/silence.wav,,,,,0,2,2,2,0,44,44,38,1242.847798,1244.847487,a,1,1.7060277,P19,2023-06-27_16h03.24.091,StroopExp,2022.2.5,60.34278321
b3,stroop_trial_condtions/b1.xlsx,0.674408476,0,incongruent,BLUE,yellow,f,distractors/silence.wav,,,,,0,2,2,2,0,45,45,26,1247.363285,1249.36249,f,1,1.0340685,P19,2023-06-27_16h03.24.091,StroopExp,2022.2.5,60.34278321
b3,stroop_trial_condtions/b1.xlsx,0.68696849,0,congruent,YELLOW,yellow,f,distractors/silence.wav,,,,,0,2,2,2,0,46,46,45,1251.861516,1253.861167,f,1,0.7039026,P19,2023-06-27_16h03.24.091,StroopExp,2022.2.5,60.34278321
b3,stroop_trial_condtions/b1.xlsx,0.976942146,0,congruent,BLUE,blue,d,distractors/silence.wav,,,,,0,2,2,2,0,47,47,13,1256.360171,1258.36,d,1,0.8607444,P19,2023-06-27_16h03.24.091,StroopExp,2022.2.5,60.34278321
b4,stroop_trial_condtions/b3.xlsx,0.017634479,1,incongruent,RED,blue,d,distractors/3.wav,,,,,0,3,3,3,0,0,0,31,1408.02551,1410.024865,d,1,0.9384287,P19,2023-06-27_16h03.24.091,StroopExp,2022.2.5,60.34278321
b4,stroop_trial_condtions/b3.xlsx,0.289836119,1,incongruent,GREEN,yellow,f,distractors/2.wav,,,,,0,3,3,3,0,1,1,20,1412.540558,1414.540172,f,1,0.968866,P19,2023-06-27_16h03.24.091,StroopExp,2022.2.5,60.34278321
b4,stroop_trial_condtions/b3.xlsx,0.871165656,1,congruent,YELLOW,yellow,f,distractors/1.wav,,,,,0,3,3,3,0,2,2,11,1417.056177,1419.056168,f,1,0.9915783,P19,2023-06-27_16h03.24.091,StroopExp,2022.2.5,60.34278321
b4,stroop_trial_condtions/b3.xlsx,0.304890161,1,incongruent,BLUE,green,s,distractors/1.wav,,,,,0,3,3,3,0,3,3,21,1421.539546,1423.539177,s,1,0.9415547,P19,2023-06-27_16h03.24.091,StroopExp,2022.2.5,60.34278321
b4,stroop_trial_condtions/b3.xlsx,0.264144016,1,congruent,RED,red,a,distractors/2.wav,,,,,0,3,3,3,0,4,4,6,1426.052704,1428.052208,a,1,0.902721,P19,2023-06-27_16h03.24.091,StroopExp,2022.2.5,60.34278321
b4,stroop_trial_condtions/b3.xlsx,0.749087818,1,congruent,GREEN,green,s,distractors/2.wav,,,,,0,3,3,3,0,5,5,46,1430.551243,1432.551101,s,1,1.0382657,P19,2023-06-27_16h03.24.091,StroopExp,2022.2.5,60.34278321
b4,stroop_trial_condtions/b3.xlsx,0.585762683,1,congruent,GREEN,green,s,distractors/2.wav,,,,,0,3,3,3,0,6,6,18,1435.066203,1437.065933,s,1,0.8010986,P19,2023-06-27_16h03.24.091,StroopExp,2022.2.5,60.34278321
b4,stroop_trial_condtions/b3.xlsx,0.759150938,1,congruent,YELLOW,yellow,f,distractors/3.wav,,,,,0,3,3,3,0,7,7,36,1439.581358,1441.581386,f,1,1.0221374,P19,2023-06-27_16h03.24.091,StroopExp,2022.2.5,60.34278321
b4,stroop_trial_condtions/b3.xlsx,0.507803195,1,congruent,YELLOW,yellow,f,distractors/3.wav,,,,,0,3,3,3,0,8,8,45,1444.080503,,f,1,0.907734,P19,2023-06-27_16h03.24.091,StroopExp,2022.2.5,60.34278321
b4,stroop_trial_condtions/b3.xlsx,0.741548313,1,congruent,YELLOW,yellow,f,distractors/1.wav,,,,,0,3,3,3,0,9,9,22,1448.595414,1450.594639,f,1,0.8040042,P19,2023-06-27_16h03.24.091,StroopExp,2022.2.5,60.34278321
b4,stroop_trial_condtions/b3.xlsx,0.457447166,1,congruent,RED,red,a,distractors/1.wav,,,,,0,3,3,3,0,10,10,41,1453.093767,1455.093284,a,1,0.9838561,P19,2023-06-27_16h03.24.091,StroopExp,2022.2.5,60.34278321
b4,stroop_trial_condtions/b3.xlsx,0.854349554,1,congruent,YELLOW,yellow,f,distractors/3.wav,,,,,0,3,3,3,0,11,11,27,1457.59186,1459.591547,f,1,1.0740736,P19,2023-06-27_16h03.24.091,StroopExp,2022.2.5,60.34278321
b4,stroop_trial_condtions/b3.xlsx,0.965444972,1,congruent,BLUE,blue,d,distractors/2.wav,,,,,0,3,3,3,0,12,12,2,1462.090761,1464.089939,d,1,0.9266572,P19,2023-06-27_16h03.24.091,StroopExp,2022.2.5,60.34278321
b4,stroop_trial_condtions/b3.xlsx,0.600008433,1,congruent,BLUE,blue,d,distractors/3.wav,,,,,0,3,3,3,0,13,13,42,1466.590083,1468.590517,d,1,0.7554826,P19,2023-06-27_16h03.24.091,StroopExp,2022.2.5,60.34278321
b4,stroop_trial_condtions/b3.xlsx,0.425610132,1,congruent,BLUE,blue,d,distractors/4.wav,,,,,0,3,3,3,0,14,14,9,1471.090226,1473.090296,d,1,0.650259,P19,2023-06-27_16h03.24.091,StroopExp,2022.2.5,60.34278321
b4,stroop_trial_condtions/b3.xlsx,0.629652757,1,incongruent,GREEN,red,a,distractors/4.wav,,,,,0,3,3,3,0,15,15,24,1475.585785,1477.585401,a,1,0.9392307,P19,2023-06-27_16h03.24.091,StroopExp,2022.2.5,60.34278321
b4,stroop_trial_condtions/b3.xlsx,0.214405789,1,incongruent,GREEN,red,a,distractors/4.wav,,,,,0,3,3,3,0,16,16,29,1480.101226,1482.100822,a,1,0.9994248,P19,2023-06-27_16h03.24.091,StroopExp,2022.2.5,60.34278321
b4,stroop_trial_condtions/b3.xlsx,0.139842966,1,congruent,GREEN,green,s,distractors/2.wav,,,,,0,3,3,3,0,17,17,8,1484.599513,1486.598882,s,1,1.0334895,P19,2023-06-27_16h03.24.091,StroopExp,2022.2.5,60.34278321
b4,stroop_trial_condtions/b3.xlsx,0.927706406,1,incongruent,BLUE,red,a,distractors/1.wav,,,,,0,3,3,3,0,18,18,32,1489.114885,1491.114166,a,1,0.9170009,P19,2023-06-27_16h03.24.091,StroopExp,2022.2.5,60.34278321
b4,stroop_trial_condtions/b3.xlsx,0.999512659,1,incongruent,GREEN,yellow,f,distractors/1.wav,,,,,0,3,3,3,0,19,19,39,1493.613356,1495.612957,f,1,0.9919273,P19,2023-06-27_16h03.24.091,StroopExp,2022.2.5,60.34278321
b4,stroop_trial_condtions/b3.xlsx,0.469997319,1,incongruent,YELLOW,red,a,distractors/2.wav,,,,,0,3,3,3,0,20,20,34,1498.128579,1500.127616,a,1,0.9064755,P19,2023-06-27_16h03.24.091,StroopExp,2022.2.5,60.34278321
b4,stroop_trial_condtions/b3.xlsx,0.229480302,1,congruent,YELLOW,yellow,f,distractors/3.wav,,,,,0,3,3,3,0,21,21,0,1502.627382,,f,1,0.942262,P19,2023-06-27_16h03.24.091,StroopExp,2022.2.5,60.34278321
b4,stroop_trial_condtions/b3.xlsx,0.10397583,1,incongruent,BLUE,green,s,distractors/1.wav,,,,,0,3,3,3,0,22,22,47,1507.142003,1509.141469,s,1,0.8856205,P19,2023-06-27_16h03.24.091,StroopExp,2022.2.5,60.34278321
b4,stroop_trial_condtions/b3.xlsx,0.801010583,1,incongruent,RED,blue,d,distractors/2.wav,,,,,0,3,3,3,0,23,23,13,1511.640906,1513.641032,d,1,0.9709061,P19,2023-06-27_16h03.24.091,StroopExp,2022.2.5,60.34278321
b4,stroop_trial_condtions/b3.xlsx,0.504266909,1,congruent,BLUE,blue,d,distractors/2.wav,,,,,0,3,3,3,0,24,24,25,1516.124243,1518.124565,d,1,0.8914918,P19,2023-06-27_16h03.24.091,StroopExp,2022.2.5,60.34278321
b4,stroop_trial_condtions/b3.xlsx,0.490953462,1,congruent,GREEN,green,s,distractors/4.wav,,,,,0,3,3,3,0,25,25,1,1520.62432,,s,1,0.7428883,P19,2023-06-27_16h03.24.091,StroopExp,2022.2.5,60.34278321
b4,stroop_trial_condtions/b3.xlsx,0.388628644,1,congruent,RED,red,a,distractors/4.wav,,,,,0,3,3,3,0,26,26,17,1525.136082,1527.135226,a,1,0.9272095,P19,2023-06-27_16h03.24.091,StroopExp,2022.2.5,60.34278321
b4,stroop_trial_condtions/b3.xlsx,0.801680892,1,incongruent,YELLOW,red,a,distractors/3.wav,,,,,0,3,3,3,0,27,27,35,1529.651275,1531.650494,a,1,0.9057966,P19,2023-06-27_16h03.24.091,StroopExp,2022.2.5,60.34278321
b4,stroop_trial_condtions/b3.xlsx,0.22157821,1,incongruent,RED,green,s,distractors/4.wav,,,,,0,3,3,3,0,28,28,26,1534.149419,1536.149379,s,1,0.8681378,P19,2023-06-27_16h03.24.091,StroopExp,2022.2.5,60.34278321
b4,stroop_trial_condtions/b3.xlsx,0.6103536,1,incongruent,RED,green,s,distractors/2.wav,,,,,0,3,3,3,0,29,29,16,1538.665193,,s,1,0.8004339,P19,2023-06-27_16h03.24.091,StroopExp,2022.2.5,60.34278321
b4,stroop_trial_condtions/b3.xlsx,0.488087669,1,congruent,RED,red,a,distractors/4.wav,,,,,0,3,3,3,0,30,30,38,1543.179874,1545.179262,a,1,0.8663018,P19,2023-06-27_16h03.24.091,StroopExp,2022.2.5,60.34278321
b4,stroop_trial_condtions/b3.xlsx,0.677170745,1,congruent,GREEN,green,s,distractors/1.wav,,,,,0,3,3,3,0,31,31,5,1547.678729,1549.677843,s,1,0.9868028,P19,2023-06-27_16h03.24.091,StroopExp,2022.2.5,60.34278321
b4,stroop_trial_condtions/b3.xlsx,0.217828855,1,incongruent,GREEN,blue,d,distractors/1.wav,,,,,0,3,3,3,0,32,32,44,1552.193675,1554.19374,d,1,1.0828075,P19,2023-06-27_16h03.24.091,StroopExp,2022.2.5,60.34278321
b4,stroop_trial_condtions/b3.xlsx,0.56899076,1,congruent,BLUE,blue,d,distractors/3.wav,,,,,0,3,3,3,0,33,33,28,1556.708774,1558.708042,d,1,0.9659154,P19,2023-06-27_16h03.24.091,StroopExp,2022.2.5,60.34278321
b4,stroop_trial_condtions/b3.xlsx,0.422027805,1,incongruent,YELLOW,green,s,distractors/2.wav,,,,,0,3,3,3,0,34,34,33,1561.208328,1563.208133,s,1,1.0232172,P19,2023-06-27_16h03.24.091,StroopExp,2022.2.5,60.34278321
b4,stroop_trial_condtions/b3.xlsx,0.801341495,1,incongruent,BLUE,yellow,f,distractors/4.wav,,,,,0,3,3,3,0,35,35,4,1565.69184,1567.69223,f,1,1.0593992,P19,2023-06-27_16h03.24.091,StroopExp,2022.2.5,60.34278321
b4,stroop_trial_condtions/b3.xlsx,0.521565887,1,incongruent,YELLOW,blue,d,distractors/3.wav,,,,,0,3,3,3,0,36,36,14,1570.187608,1572.187359,d,1,0.9878108,P19,2023-06-27_16h03.24.091,StroopExp,2022.2.5,60.34278321
b4,stroop_trial_condtions/b3.xlsx,0.585825436,1,incongruent,YELLOW,blue,d,distractors/2.wav,,,,,0,3,3,3,0,37,37,12,1574.702831,,d,1,0.9346479,P19,2023-06-27_16h03.24.091,StroopExp,2022.2.5,60.34278321
b4,stroop_trial_condtions/b3.xlsx,0.010072896,1,congruent,RED,red,a,distractors/4.wav,,,,,0,3,3,3,0,38,38,37,1579.201279,1581.200509,a,1,1.2244727,P19,2023-06-27_16h03.24.091,StroopExp,2022.2.5,60.34278321
b4,stroop_trial_condtions/b3.xlsx,0.512136417,1,congruent,BLUE,blue,d,distractors/3.wav,,,,,0,3,3,3,0,39,39,40,1583.699866,1585.715633,d,1,1.1074557,P19,2023-06-27_16h03.24.091,StroopExp,2022.2.5,60.34278321
b4,stroop_trial_condtions/b3.xlsx,0.794314825,1,incongruent,BLUE,red,a,distractors/1.wav,,,,,0,3,3,3,0,40,40,30,1588.214305,1590.214002,a,1,1.117324,P19,2023-06-27_16h03.24.091,StroopExp,2022.2.5,60.34278321
b4,stroop_trial_condtions/b3.xlsx,0.055781084,1,incongruent,RED,yellow,f,distractors/4.wav,,,,,0,3,3,3,0,41,41,43,1592.730052,1594.729224,f,1,1.0550858,P19,2023-06-27_16h03.24.091,StroopExp,2022.2.5,60.34278321
b4,stroop_trial_condtions/b3.xlsx,0.253236555,1,congruent,GREEN,green,s,distractors/1.wav,,,,,0,3,3,3,0,42,42,10,1597.228188,1599.227159,s,1,0.8556506,P19,2023-06-27_16h03.24.091,StroopExp,2022.2.5,60.34278321
b4,stroop_trial_condtions/b3.xlsx,0.509195284,1,congruent,RED,red,a,distractors/3.wav,,,,,0,3,3,3,0,43,43,23,1601.727175,1603.726449,a,1,0.8805452,P19,2023-06-27_16h03.24.091,StroopExp,2022.2.5,60.34278321
b4,stroop_trial_condtions/b3.xlsx,0.091035715,1,incongruent,BLUE,yellow,f,distractors/3.wav,,,,,0,3,3,3,0,44,44,7,1606.225104,1608.225105,f,1,0.9520083,P19,2023-06-27_16h03.24.091,StroopExp,2022.2.5,60.34278321
b4,stroop_trial_condtions/b3.xlsx,0.337871903,1,incongruent,RED,yellow,f,distractors/4.wav,,,,,0,3,3,3,0,45,45,19,1610.709128,1612.709298,f,1,1.0341611,P19,2023-06-27_16h03.24.091,StroopExp,2022.2.5,60.34278321
b4,stroop_trial_condtions/b3.xlsx,0.468515905,1,incongruent,YELLOW,green,s,distractors/1.wav,,,,,0,3,3,3,0,46,46,3,1615.192537,1617.205125,s,1,1.0588064,P19,2023-06-27_16h03.24.091,StroopExp,2022.2.5,60.34278321
b4,stroop_trial_condtions/b3.xlsx,0.552411576,1,incongruent,GREEN,blue,d,distractors/4.wav,,,,,0,3,3,3,0,47,47,15,1619.704015,1621.703052,d,1,0.9134326,P19,2023-06-27_16h03.24.091,StroopExp,2022.2.5,60.34278321
