block_number,location,Index,has_distraction,trial_type,word,color,correct_key,distraction_file_name,practice_trials_4X5.thisRepN,practice_trials_4X5.thisTrialN,practice_trials_4X5.thisN,practice_trials_4X5.thisIndex,blocks.thisRepN,blocks.thisTrialN,blocks.thisN,blocks.thisIndex,trials.thisRepN,trials.thisTrialN,trials.thisN,trials.thisIndex,key_stroop.started,key_stroop.stopped,key_stroop.keys,key_stroop.corr,key_stroop.rt,participant,date,expName,psychopyVersion,frameRate
b1,stroop_trial_condtions/b1.xlsx,0.63243718,0,incongruent,RED,blue,d,distractors/silence.wav,,,,,0,0,0,0,0,0,0,19,409.0217941,411.0263498,d,1,1.2659986,P15,2023-06-26_15h45.04.209,StroopExp,2022.2.5,59.12181636
b1,stroop_trial_condtions/b1.xlsx,0.199393364,0,congruent,YELLOW,yellow,f,distractors/silence.wav,,,,,0,0,0,0,0,1,1,23,413.519916,415.5194877,f,1,0.690526,P15,2023-06-26_15h45.04.209,StroopExp,2022.2.5,59.12181636
b1,stroop_trial_condtions/b1.xlsx,0.237396997,0,incongruent,GREEN,blue,d,distractors/silence.wav,,,,,0,0,0,0,0,2,2,18,418.0183621,420.0180215,d,1,0.892954,P15,2023-06-26_15h45.04.209,StroopExp,2022.2.5,59.12181636
b1,stroop_trial_condtions/b1.xlsx,0.647841101,0,incongruent,GREEN,red,a,distractors/silence.wav,,,,,0,0,0,0,0,3,3,6,422.5337847,424.5331456,a,1,0.5690977,P15,2023-06-26_15h45.04.209,StroopExp,2022.2.5,59.12181636
b1,stroop_trial_condtions/b1.xlsx,0.870406961,0,congruent,YELLOW,yellow,f,distractors/silence.wav,,,,,0,0,0,0,0,4,4,11,427.0326864,,f,1,0.7507923,P15,2023-06-26_15h45.04.209,StroopExp,2022.2.5,59.12181636
b1,stroop_trial_condtions/b1.xlsx,0.027168618,0,incongruent,RED,yellow,f,distractors/silence.wav,,,,,0,0,0,0,0,5,5,27,431.5472702,433.5467935,f,1,0.77521,P15,2023-06-26_15h45.04.209,StroopExp,2022.2.5,59.12181636
b1,stroop_trial_condtions/b1.xlsx,0.256932032,0,congruent,BLUE,blue,d,distractors/silence.wav,,,,,0,0,0,0,0,6,6,30,436.0470245,438.0466917,d,1,0.6181444,P15,2023-06-26_15h45.04.209,StroopExp,2022.2.5,59.12181636
b1,stroop_trial_condtions/b1.xlsx,0.191332161,0,congruent,GREEN,green,s,distractors/silence.wav,,,,,0,0,0,0,0,7,7,43,440.5303015,442.5304176,s,1,0.9426622,P15,2023-06-26_15h45.04.209,StroopExp,2022.2.5,59.12181636
b1,stroop_trial_condtions/b1.xlsx,0.744564924,0,congruent,GREEN,green,s,distractors/silence.wav,,,,,0,0,0,0,0,8,8,42,445.0264117,447.0253042,s,1,0.6688701,P15,2023-06-26_15h45.04.209,StroopExp,2022.2.5,59.12181636
b1,stroop_trial_condtions/b1.xlsx,0.072914577,0,congruent,BLUE,blue,d,distractors/silence.wav,,,,,0,0,0,0,0,9,9,3,449.5249861,451.5238199,d,1,0.9502086,P15,2023-06-26_15h45.04.209,StroopExp,2022.2.5,59.12181636
b1,stroop_trial_condtions/b1.xlsx,0.660435133,0,congruent,GREEN,green,s,distractors/silence.wav,,,,,0,0,0,0,0,10,10,4,454.0399815,456.0393779,s,1,0.8383683,P15,2023-06-26_15h45.04.209,StroopExp,2022.2.5,59.12181636
b1,stroop_trial_condtions/b1.xlsx,0.667196906,0,incongruent,RED,green,s,distractors/silence.wav,,,,,0,0,0,0,0,11,11,36,458.5383375,460.5381402,s,1,0.87418,P15,2023-06-26_15h45.04.209,StroopExp,2022.2.5,59.12181636
b1,stroop_trial_condtions/b1.xlsx,0.401782254,0,incongruent,YELLOW,red,a,distractors/silence.wav,,,,,0,0,0,0,0,12,12,12,463.0368066,465.0365019,a,1,0.5536958,P15,2023-06-26_15h45.04.209,StroopExp,2022.2.5,59.12181636
b1,stroop_trial_condtions/b1.xlsx,0.350328137,0,congruent,GREEN,green,s,distractors/silence.wav,,,,,0,0,0,0,0,13,13,20,467.5352739,469.5357957,s,1,0.9795625,P15,2023-06-26_15h45.04.209,StroopExp,2022.2.5,59.12181636
b1,stroop_trial_condtions/b1.xlsx,0.896952266,0,incongruent,YELLOW,blue,d,distractors/silence.wav,,,,,0,0,0,0,0,14,14,25,472.0358748,,d,1,0.5029057,P15,2023-06-26_15h45.04.209,StroopExp,2022.2.5,59.12181636
b1,stroop_trial_condtions/b1.xlsx,0.004767374,0,incongruent,RED,green,s,distractors/silence.wav,,,,,0,0,0,0,0,15,15,14,476.5489849,478.5485123,s,1,0.751296,P15,2023-06-26_15h45.04.209,StroopExp,2022.2.5,59.12181636
b1,stroop_trial_condtions/b1.xlsx,0.579491601,0,congruent,RED,red,a,distractors/silence.wav,,,,,0,0,0,0,0,16,16,47,481.0639717,483.0642482,a,1,0.8045745,P15,2023-06-26_15h45.04.209,StroopExp,2022.2.5,59.12181636
b1,stroop_trial_condtions/b1.xlsx,0.976942146,0,congruent,BLUE,blue,d,distractors/silence.wav,,,,,0,0,0,0,0,17,17,13,485.5476918,487.5478577,d,1,0.7170919,P15,2023-06-26_15h45.04.209,StroopExp,2022.2.5,59.12181636
b1,stroop_trial_condtions/b1.xlsx,0.936669537,0,incongruent,GREEN,yellow,f,distractors/silence.wav,,,,,0,0,0,0,0,18,18,34,490.047941,492.0604973,f,1,0.6674432,P15,2023-06-26_15h45.04.209,StroopExp,2022.2.5,59.12181636
b1,stroop_trial_condtions/b1.xlsx,0.249190077,0,congruent,YELLOW,yellow,f,distractors/silence.wav,,,,,0,0,0,0,0,19,19,16,494.5600385,496.558963,f,1,0.650733,P15,2023-06-26_15h45.04.209,StroopExp,2022.2.5,59.12181636
b1,stroop_trial_condtions/b1.xlsx,0.976569181,0,incongruent,YELLOW,blue,d,distractors/silence.wav,,,,,0,0,0,0,0,20,20,39,499.0745738,501.0736619,d,1,1.1737924,P15,2023-06-26_15h45.04.209,StroopExp,2022.2.5,59.12181636
b1,stroop_trial_condtions/b1.xlsx,0.971858016,0,congruent,RED,red,a,distractors/silence.wav,,,,,0,0,0,0,0,21,21,0,503.5731262,505.5723485,a,1,0.6763715,P15,2023-06-26_15h45.04.209,StroopExp,2022.2.5,59.12181636
b1,stroop_trial_condtions/b1.xlsx,0.68696849,0,congruent,YELLOW,yellow,f,distractors/silence.wav,,,,,0,0,0,0,0,22,22,45,508.0881984,510.087838,f,1,0.5082319,P15,2023-06-26_15h45.04.209,StroopExp,2022.2.5,59.12181636
b1,stroop_trial_condtions/b1.xlsx,0.922953448,0,congruent,RED,red,a,distractors/silence.wav,,,,,0,0,0,0,0,23,23,40,512.5870492,514.5862533,a,1,0.5584941,P15,2023-06-26_15h45.04.209,StroopExp,2022.2.5,59.12181636
b1,stroop_trial_condtions/b1.xlsx,0.680507855,0,incongruent,GREEN,yellow,f,distractors/silence.wav,,,,,0,0,0,0,0,24,24,33,517.0852149,519.0847158,f,1,0.6957281,P15,2023-06-26_15h45.04.209,StroopExp,2022.2.5,59.12181636
b1,stroop_trial_condtions/b1.xlsx,0.01936095,0,incongruent,YELLOW,green,s,distractors/silence.wav,,,,,0,0,0,0,0,25,25,2,521.6005506,523.5998564,s,1,0.7841887,P15,2023-06-26_15h45.04.209,StroopExp,2022.2.5,59.12181636
b1,stroop_trial_condtions/b1.xlsx,0.625212421,0,congruent,GREEN,green,s,distractors/silence.wav,,,,,0,0,0,0,0,26,26,24,526.1156436,528.115079,s,1,0.6272832,P15,2023-06-26_15h45.04.209,StroopExp,2022.2.5,59.12181636
b1,stroop_trial_condtions/b1.xlsx,0.153196184,0,incongruent,YELLOW,green,s,distractors/silence.wav,,,,,0,0,0,0,0,27,27,31,530.6151565,532.6152725,s,1,0.5325534,P15,2023-06-26_15h45.04.209,StroopExp,2022.2.5,59.12181636
b1,stroop_trial_condtions/b1.xlsx,0.251874896,0,incongruent,GREEN,blue,d,distractors/silence.wav,,,,,0,0,0,0,0,28,28,37,535.1149161,537.1151742,d,1,0.7173764,P15,2023-06-26_15h45.04.209,StroopExp,2022.2.5,59.12181636
b1,stroop_trial_condtions/b1.xlsx,0.543070637,0,incongruent,BLUE,yellow,f,distractors/silence.wav,,,,,0,0,0,0,0,29,29,1,539.6277649,541.6268124,f,1,0.7666919,P15,2023-06-26_15h45.04.209,StroopExp,2022.2.5,59.12181636
b1,stroop_trial_condtions/b1.xlsx,0.939662107,0,congruent,RED,red,a,distractors/silence.wav,,,,,0,0,0,0,0,30,30,21,544.1263506,546.1255104,a,1,0.6187925,P15,2023-06-26_15h45.04.209,StroopExp,2022.2.5,59.12181636
b1,stroop_trial_condtions/b1.xlsx,0.419315371,0,congruent,RED,red,a,distractors/silence.wav,,,,,0,0,0,0,0,31,31,38,548.641022,550.6408057,a,1,0.7178338,P15,2023-06-26_15h45.04.209,StroopExp,2022.2.5,59.12181636
b1,stroop_trial_condtions/b1.xlsx,0.542994022,0,congruent,YELLOW,yellow,f,distractors/silence.wav,,,,,0,0,0,0,0,32,32,28,553.1564517,555.1556882,f,1,0.7425898,P15,2023-06-26_15h45.04.209,StroopExp,2022.2.5,59.12181636
b1,stroop_trial_condtions/b1.xlsx,0.733681542,0,incongruent,BLUE,green,s,distractors/silence.wav,,,,,0,0,0,0,0,33,33,15,557.6716943,559.6710284,s,1,0.6164872,P15,2023-06-26_15h45.04.209,StroopExp,2022.2.5,59.12181636
b1,stroop_trial_condtions/b1.xlsx,0.548087945,0,congruent,YELLOW,yellow,f,distractors/silence.wav,,,,,0,0,0,0,0,34,34,32,562.1703114,564.1692213,f,1,0.7332669,P15,2023-06-26_15h45.04.209,StroopExp,2022.2.5,59.12181636
b1,stroop_trial_condtions/b1.xlsx,0.935097843,0,incongruent,RED,blue,d,distractors/silence.wav,,,,,0,0,0,0,0,35,35,17,566.6851962,568.6845213,d,1,1.1533385,P15,2023-06-26_15h45.04.209,StroopExp,2022.2.5,59.12181636
b1,stroop_trial_condtions/b1.xlsx,0.493018261,0,congruent,BLUE,blue,d,distractors/silence.wav,,,,,0,0,0,0,0,36,36,7,571.1835025,573.1830637,d,1,0.6048454,P15,2023-06-26_15h45.04.209,StroopExp,2022.2.5,59.12181636
b1,stroop_trial_condtions/b1.xlsx,0.077117098,0,incongruent,BLUE,red,a,distractors/silence.wav,,,,,0,0,0,0,0,37,37,35,575.6987388,577.6989989,a,1,0.7304055,P15,2023-06-26_15h45.04.209,StroopExp,2022.2.5,59.12181636
b1,stroop_trial_condtions/b1.xlsx,0.674408476,0,incongruent,BLUE,yellow,f,distractors/silence.wav,,,,,0,0,0,0,0,38,38,26,580.1823247,582.1823158,f,1,0.6710702,P15,2023-06-26_15h45.04.209,StroopExp,2022.2.5,59.12181636
b1,stroop_trial_condtions/b1.xlsx,0.983636333,0,incongruent,RED,yellow,f,distractors/silence.wav,,,,,0,0,0,0,0,39,39,10,584.6656338,586.6781755,f,1,0.7910022,P15,2023-06-26_15h45.04.209,StroopExp,2022.2.5,59.12181636
b1,stroop_trial_condtions/b1.xlsx,0.571650714,0,incongruent,YELLOW,red,a,distractors/silence.wav,,,,,0,0,0,0,0,40,40,5,589.1775331,591.184904,a,1,0.7828236,P15,2023-06-26_15h45.04.209,StroopExp,2022.2.5,59.12181636
b1,stroop_trial_condtions/b1.xlsx,0.729684234,0,incongruent,BLUE,red,a,distractors/silence.wav,,,,,0,0,0,0,0,41,41,29,593.6760259,595.6754148,a,1,0.6590702,P15,2023-06-26_15h45.04.209,StroopExp,2022.2.5,59.12181636
b1,stroop_trial_condtions/b1.xlsx,0.583196525,0,congruent,BLUE,blue,d,distractors/silence.wav,,,,,0,0,0,0,0,42,42,44,598.1919471,,d,1,1.1406257,P15,2023-06-26_15h45.04.209,StroopExp,2022.2.5,59.12181636
b1,stroop_trial_condtions/b1.xlsx,0.451597903,0,congruent,BLUE,blue,d,distractors/silence.wav,,,,,0,0,0,0,0,43,43,22,602.7062094,604.7053217,d,1,0.6871549,P15,2023-06-26_15h45.04.209,StroopExp,2022.2.5,59.12181636
b1,stroop_trial_condtions/b1.xlsx,0.870893567,0,congruent,RED,red,a,distractors/silence.wav,,,,,0,0,0,0,0,44,44,9,607.2048588,609.2042975,a,1,0.7055122,P15,2023-06-26_15h45.04.209,StroopExp,2022.2.5,59.12181636
b1,stroop_trial_condtions/b1.xlsx,0.830948331,0,incongruent,BLUE,green,s,distractors/silence.wav,,,,,0,0,0,0,0,45,45,46,611.720088,613.7204002,s,1,1.0091421,P15,2023-06-26_15h45.04.209,StroopExp,2022.2.5,59.12181636
b1,stroop_trial_condtions/b1.xlsx,0.8328021,0,incongruent,GREEN,red,a,distractors/silence.wav,,,,,0,0,0,0,0,46,46,41,616.2353746,618.2344938,a,1,0.7599116,P15,2023-06-26_15h45.04.209,StroopExp,2022.2.5,59.12181636
b1,stroop_trial_condtions/b1.xlsx,0.708976038,0,congruent,GREEN,green,s,distractors/silence.wav,,,,,0,0,0,0,0,47,47,8,620.750283,622.749277,s,1,0.6121725,P15,2023-06-26_15h45.04.209,StroopExp,2022.2.5,59.12181636
b2,stroop_trial_condtions/b2.xlsx,0.838430071,1,congruent,RED,red,a,distractors/1.wav,,,,,0,1,1,1,0,0,0,25,697.2579729,699.2568969,a,1,0.6592453,P15,2023-06-26_15h45.04.209,StroopExp,2022.2.5,59.12181636
b2,stroop_trial_condtions/b2.xlsx,0.065023824,1,incongruent,GREEN,yellow,f,distractors/1.wav,,,,,0,1,1,1,0,1,1,7,701.7728685,703.7969469,f,1,0.789715,P15,2023-06-26_15h45.04.209,StroopExp,2022.2.5,59.12181636
b2,stroop_trial_condtions/b2.xlsx,0.488971465,1,incongruent,BLUE,red,a,distractors/4.wav,,,,,0,1,1,1,0,2,2,29,706.2713155,708.2921672,a,1,0.7392894,P15,2023-06-26_15h45.04.209,StroopExp,2022.2.5,59.12181636
b2,stroop_trial_condtions/b2.xlsx,0.531759185,1,congruent,YELLOW,yellow,f,distractors/2.wav,,,,,0,1,1,1,0,3,3,34,710.7697543,712.7692515,f,1,0.805869,P15,2023-06-26_15h45.04.209,StroopExp,2022.2.5,59.12181636
b2,stroop_trial_condtions/b2.xlsx,0.796267692,1,incongruent,RED,blue,d,distractors/4.wav,,,,,0,1,1,1,0,4,4,46,715.2684272,717.2674862,d,1,0.7903236,P15,2023-06-26_15h45.04.209,StroopExp,2022.2.5,59.12181636
b2,stroop_trial_condtions/b2.xlsx,0.828978616,1,incongruent,RED,yellow,f,distractors/4.wav,,,,,0,1,1,1,0,5,5,31,719.7680055,721.7907297,f,1,0.765775,P15,2023-06-26_15h45.04.209,StroopExp,2022.2.5,59.12181636
b2,stroop_trial_condtions/b2.xlsx,0.858613787,1,incongruent,YELLOW,blue,d,distractors/3.wav,,,,,0,1,1,1,0,6,6,44,724.2513275,726.2505941,d,1,0.7956535,P15,2023-06-26_15h45.04.209,StroopExp,2022.2.5,59.12181636
b2,stroop_trial_condtions/b2.xlsx,0.88570862,1,congruent,BLUE,blue,d,distractors/1.wav,,,,,0,1,1,1,0,7,7,16,728.7645427,,d,1,0.6498106,P15,2023-06-26_15h45.04.209,StroopExp,2022.2.5,59.12181636
b2,stroop_trial_condtions/b2.xlsx,0.011991742,1,congruent,RED,red,a,distractors/4.wav,,,,,0,1,1,1,0,8,8,42,733.2792814,,a,1,0.6957936,P15,2023-06-26_15h45.04.209,StroopExp,2022.2.5,59.12181636
b2,stroop_trial_condtions/b2.xlsx,0.966821302,1,congruent,BLUE,blue,d,distractors/2.wav,,,,,0,1,1,1,0,9,9,21,737.7942459,739.7936214,d,1,0.6647708,P15,2023-06-26_15h45.04.209,StroopExp,2022.2.5,59.12181636
b2,stroop_trial_condtions/b2.xlsx,0.629589964,1,congruent,RED,red,a,distractors/2.wav,,,,,0,1,1,1,0,10,10,11,742.2926983,744.2924882,a,1,0.7204535,P15,2023-06-26_15h45.04.209,StroopExp,2022.2.5,59.12181636
b2,stroop_trial_condtions/b2.xlsx,0.155643688,1,incongruent,YELLOW,blue,d,distractors/3.wav,,,,,0,1,1,1,0,11,11,39,746.8077923,748.8071362,d,1,0.9325523,P15,2023-06-26_15h45.04.209,StroopExp,2022.2.5,59.12181636
b2,stroop_trial_condtions/b2.xlsx,0.500798324,1,incongruent,BLUE,green,s,distractors/1.wav,,,,,0,1,1,1,0,12,12,18,751.3061279,753.3056876,s,1,0.8272937,P15,2023-06-26_15h45.04.209,StroopExp,2022.2.5,59.12181636
b2,stroop_trial_condtions/b2.xlsx,0.361479091,1,congruent,GREEN,green,s,distractors/1.wav,,,,,0,1,1,1,0,13,13,17,755.8213837,757.8208599,s,1,0.558385,P15,2023-06-26_15h45.04.209,StroopExp,2022.2.5,59.12181636
b2,stroop_trial_condtions/b2.xlsx,0.973471425,1,congruent,BLUE,blue,d,distractors/2.wav,,,,,0,1,1,1,0,14,14,1,760.3196866,762.3193628,d,1,0.6751457,P15,2023-06-26_15h45.04.209,StroopExp,2022.2.5,59.12181636
b2,stroop_trial_condtions/b2.xlsx,0.566650633,1,incongruent,GREEN,yellow,f,distractors/3.wav,,,,,0,1,1,1,0,15,15,0,764.8180359,766.8185852,f,1,0.7831607,P15,2023-06-26_15h45.04.209,StroopExp,2022.2.5,59.12181636
b2,stroop_trial_condtions/b2.xlsx,0.814062715,1,congruent,BLUE,blue,d,distractors/2.wav,,,,,0,1,1,1,0,16,16,36,769.3020211,771.3018098,d,1,1.2288897,P15,2023-06-26_15h45.04.209,StroopExp,2022.2.5,59.12181636
b2,stroop_trial_condtions/b2.xlsx,0.067305336,1,incongruent,BLUE,yellow,f,distractors/3.wav,,,,,0,1,1,1,0,17,17,26,773.8018696,775.8018228,f,1,0.7233689,P15,2023-06-26_15h45.04.209,StroopExp,2022.2.5,59.12181636
b2,stroop_trial_condtions/b2.xlsx,0.666141953,1,congruent,RED,red,a,distractors/2.wav,,,,,0,1,1,1,0,18,18,3,778.2969996,780.2961039,a,1,0.4965424,P15,2023-06-26_15h45.04.209,StroopExp,2022.2.5,59.12181636
b2,stroop_trial_condtions/b2.xlsx,0.767680624,1,congruent,BLUE,blue,d,distractors/3.wav,,,,,0,1,1,1,0,19,19,32,782.7955017,784.7950936,d,1,0.7637603,P15,2023-06-26_15h45.04.209,StroopExp,2022.2.5,59.12181636
b2,stroop_trial_condtions/b2.xlsx,0.483274464,1,congruent,YELLOW,yellow,f,distractors/1.wav,,,,,0,1,1,1,0,20,20,24,787.3114824,,f,1,0.6150112,P15,2023-06-26_15h45.04.209,StroopExp,2022.2.5,59.12181636
b2,stroop_trial_condtions/b2.xlsx,0.211743172,1,congruent,YELLOW,yellow,f,distractors/2.wav,,,,,0,1,1,1,0,21,21,38,791.8257964,793.8256078,f,1,0.6351883,P15,2023-06-26_15h45.04.209,StroopExp,2022.2.5,59.12181636
b2,stroop_trial_condtions/b2.xlsx,0.090889572,1,congruent,RED,red,a,distractors/3.wav,,,,,0,1,1,1,0,22,22,41,796.3241839,798.3238225,a,1,0.6804467,P15,2023-06-26_15h45.04.209,StroopExp,2022.2.5,59.12181636
b2,stroop_trial_condtions/b2.xlsx,0.900567422,1,congruent,BLUE,blue,d,distractors/2.wav,,,,,0,1,1,1,0,23,23,30,800.8395546,,d,1,0.761451,P15,2023-06-26_15h45.04.209,StroopExp,2022.2.5,59.12181636
b2,stroop_trial_condtions/b2.xlsx,0.330833954,1,incongruent,BLUE,yellow,f,distractors/4.wav,,,,,0,1,1,1,0,24,24,5,805.3548594,807.3539819,f,1,0.8304773,P15,2023-06-26_15h45.04.209,StroopExp,2022.2.5,59.12181636
b2,stroop_trial_condtions/b2.xlsx,0.164948028,1,congruent,GREEN,green,s,distractors/4.wav,,,,,0,1,1,1,0,25,25,23,809.8697513,811.869377,s,1,0.7028773,P15,2023-06-26_15h45.04.209,StroopExp,2022.2.5,59.12181636
b2,stroop_trial_condtions/b2.xlsx,0.492685632,1,congruent,RED,red,a,distractors/4.wav,,,,,0,1,1,1,0,26,26,27,814.3694955,816.3691668,a,1,0.5333374,P15,2023-06-26_15h45.04.209,StroopExp,2022.2.5,59.12181636
b2,stroop_trial_condtions/b2.xlsx,0.04164908,1,incongruent,RED,yellow,f,distractors/4.wav,,,,,0,1,1,1,0,27,27,2,818.8692168,820.8695802,f,1,0.8338752,P15,2023-06-26_15h45.04.209,StroopExp,2022.2.5,59.12181636
b2,stroop_trial_condtions/b2.xlsx,0.128195372,1,incongruent,YELLOW,red,a,distractors/3.wav,,,,,0,1,1,1,0,28,28,35,823.3652026,825.3649023,a,1,0.7856366,P15,2023-06-26_15h45.04.209,StroopExp,2022.2.5,59.12181636
b2,stroop_trial_condtions/b2.xlsx,0.42490795,1,congruent,GREEN,green,s,distractors/2.wav,,,,,0,1,1,1,0,29,29,4,827.8633436,829.8631623,s,1,0.676281,P15,2023-06-26_15h45.04.209,StroopExp,2022.2.5,59.12181636
b2,stroop_trial_condtions/b2.xlsx,0.733185206,1,incongruent,GREEN,blue,d,distractors/4.wav,,,,,0,1,1,1,0,30,30,28,832.378915,834.3782773,d,1,0.9115698,P15,2023-06-26_15h45.04.209,StroopExp,2022.2.5,59.12181636
b2,stroop_trial_condtions/b2.xlsx,0.144418396,1,congruent,GREEN,green,s,distractors/1.wav,,,,,0,1,1,1,0,31,31,43,836.8773269,838.8765115,s,1,0.7316695,P15,2023-06-26_15h45.04.209,StroopExp,2022.2.5,59.12181636
b2,stroop_trial_condtions/b2.xlsx,0.231567411,1,congruent,GREEN,green,s,distractors/4.wav,,,,,0,1,1,1,0,32,32,8,841.4089913,843.4086784,s,1,0.641702,P15,2023-06-26_15h45.04.209,StroopExp,2022.2.5,59.12181636
b2,stroop_trial_condtions/b2.xlsx,0.295023129,1,incongruent,BLUE,red,a,distractors/1.wav,,,,,0,1,1,1,0,33,33,37,845.9247207,847.9239188,a,1,0.7070259,P15,2023-06-26_15h45.04.209,StroopExp,2022.2.5,59.12181636
b2,stroop_trial_condtions/b2.xlsx,0.329333187,1,incongruent,YELLOW,green,s,distractors/2.wav,,,,,0,1,1,1,0,34,34,6,850.422784,852.422083,s,1,0.7947899,P15,2023-06-26_15h45.04.209,StroopExp,2022.2.5,59.12181636
b2,stroop_trial_condtions/b2.xlsx,0.108398141,1,incongruent,RED,green,s,distractors/1.wav,,,,,0,1,1,1,0,35,35,14,854.9378445,856.9370308,a,0,0.6414479,P15,2023-06-26_15h45.04.209,StroopExp,2022.2.5,59.12181636
b2,stroop_trial_condtions/b2.xlsx,0.25539718,1,congruent,YELLOW,yellow,f,distractors/1.wav,,,,,0,1,1,1,0,36,36,45,859.4365318,861.4363636,f,1,0.8629739,P15,2023-06-26_15h45.04.209,StroopExp,2022.2.5,59.12181636
b2,stroop_trial_condtions/b2.xlsx,0.196366522,1,incongruent,GREEN,red,a,distractors/1.wav,,,,,0,1,1,1,0,37,37,9,863.9199392,865.9200165,a,1,0.7226839,P15,2023-06-26_15h45.04.209,StroopExp,2022.2.5,59.12181636
b2,stroop_trial_condtions/b2.xlsx,0.713195007,1,congruent,GREEN,green,s,distractors/2.wav,,,,,0,1,1,1,0,38,38,10,868.4365794,,s,1,0.8100603,P15,2023-06-26_15h45.04.209,StroopExp,2022.2.5,59.12181636
b2,stroop_trial_condtions/b2.xlsx,0.034332485,1,incongruent,YELLOW,red,a,distractors/2.wav,,,,,0,1,1,1,0,39,39,13,872.9483948,874.9478266,a,1,0.5708752,P15,2023-06-26_15h45.04.209,StroopExp,2022.2.5,59.12181636
b2,stroop_trial_condtions/b2.xlsx,0.324070625,1,congruent,YELLOW,yellow,f,distractors/3.wav,,,,,0,1,1,1,0,40,40,15,877.4471132,879.4462732,f,1,0.8436923,P15,2023-06-26_15h45.04.209,StroopExp,2022.2.5,59.12181636
b2,stroop_trial_condtions/b2.xlsx,0.107154682,1,incongruent,BLUE,green,s,distractors/3.wav,,,,,0,1,1,1,0,41,41,33,881.961801,883.9611716,s,1,0.8748967,P15,2023-06-26_15h45.04.209,StroopExp,2022.2.5,59.12181636
b2,stroop_trial_condtions/b2.xlsx,0.776926078,1,incongruent,GREEN,blue,d,distractors/4.wav,,,,,0,1,1,1,0,42,42,22,886.460615,888.4599484,d,1,0.7350785,P15,2023-06-26_15h45.04.209,StroopExp,2022.2.5,59.12181636
b2,stroop_trial_condtions/b2.xlsx,0.087696882,1,incongruent,RED,green,s,distractors/3.wav,,,,,0,1,1,1,0,43,43,47,890.9756348,892.9755443,s,1,0.9908224,P15,2023-06-26_15h45.04.209,StroopExp,2022.2.5,59.12181636
b2,stroop_trial_condtions/b2.xlsx,0.340063562,1,congruent,YELLOW,yellow,f,distractors/3.wav,,,,,0,1,1,1,0,44,44,12,895.491036,897.4904482,f,1,0.8678888,P15,2023-06-26_15h45.04.209,StroopExp,2022.2.5,59.12181636
b2,stroop_trial_condtions/b2.xlsx,0.522476173,1,incongruent,RED,blue,d,distractors/1.wav,,,,,0,1,1,1,0,45,45,20,899.9888136,901.9888297,s,0,0.6922159,P15,2023-06-26_15h45.04.209,StroopExp,2022.2.5,59.12181636
b2,stroop_trial_condtions/b2.xlsx,0.813514666,1,incongruent,GREEN,red,a,distractors/3.wav,,,,,0,1,1,1,0,46,46,40,904.4877558,906.4872025,a,1,1.0877015,P15,2023-06-26_15h45.04.209,StroopExp,2022.2.5,59.12181636
b2,stroop_trial_condtions/b2.xlsx,0.50307865,1,incongruent,YELLOW,green,s,distractors/4.wav,,,,,0,1,1,1,0,47,47,19,908.9703608,910.9703554,s,1,1.3701912,P15,2023-06-26_15h45.04.209,StroopExp,2022.2.5,59.12181636
b3,stroop_trial_condtions/b1.xlsx,0.936669537,0,incongruent,GREEN,yellow,f,distractors/silence.wav,,,,,0,2,2,2,0,0,0,34,984.5942631,986.5933312,f,1,1.0713878,P15,2023-06-26_15h45.04.209,StroopExp,2022.2.5,59.12181636
b3,stroop_trial_condtions/b1.xlsx,0.583196525,0,congruent,BLUE,blue,d,distractors/silence.wav,,,,,0,2,2,2,0,1,1,44,989.1094384,991.1085531,d,1,1.2573535,P15,2023-06-26_15h45.04.209,StroopExp,2022.2.5,59.12181636
b3,stroop_trial_condtions/b1.xlsx,0.63243718,0,incongruent,RED,blue,d,distractors/silence.wav,,,,,0,2,2,2,0,2,2,19,993.6242756,995.6237964,d,1,0.877053,P15,2023-06-26_15h45.04.209,StroopExp,2022.2.5,59.12181636
b3,stroop_trial_condtions/b1.xlsx,0.971858016,0,congruent,RED,red,a,distractors/silence.wav,,,,,0,2,2,2,0,3,3,0,998.1396204,,a,1,0.8355579,P15,2023-06-26_15h45.04.209,StroopExp,2022.2.5,59.12181636
b3,stroop_trial_condtions/b1.xlsx,0.830948331,0,incongruent,BLUE,green,s,distractors/silence.wav,,,,,0,2,2,2,0,4,4,46,1002.655184,1004.655408,s,1,0.6574777,P15,2023-06-26_15h45.04.209,StroopExp,2022.2.5,59.12181636
b3,stroop_trial_condtions/b1.xlsx,0.733681542,0,incongruent,BLUE,green,s,distractors/silence.wav,,,,,0,2,2,2,0,5,5,15,1007.138626,1009.138771,s,1,0.7011626,P15,2023-06-26_15h45.04.209,StroopExp,2022.2.5,59.12181636
b3,stroop_trial_condtions/b1.xlsx,0.451597903,0,congruent,BLUE,blue,d,distractors/silence.wav,,,,,0,2,2,2,0,6,6,22,1011.635569,,d,1,0.8114365,P15,2023-06-26_15h45.04.209,StroopExp,2022.2.5,59.12181636
b3,stroop_trial_condtions/b1.xlsx,0.419315371,0,congruent,RED,red,a,distractors/silence.wav,,,,,0,2,2,2,0,7,7,38,1016.150147,1018.149708,a,1,0.7044991,P15,2023-06-26_15h45.04.209,StroopExp,2022.2.5,59.12181636
b3,stroop_trial_condtions/b1.xlsx,0.983636333,0,incongruent,RED,yellow,f,distractors/silence.wav,,,,,0,2,2,2,0,8,8,10,1020.665304,1022.666262,f,1,0.8260216,P15,2023-06-26_15h45.04.209,StroopExp,2022.2.5,59.12181636
b3,stroop_trial_condtions/b1.xlsx,0.744564924,0,congruent,GREEN,green,s,distractors/silence.wav,,,,,0,2,2,2,0,9,9,42,1025.163662,1027.163375,s,1,0.9417068,P15,2023-06-26_15h45.04.209,StroopExp,2022.2.5,59.12181636
b3,stroop_trial_condtions/b1.xlsx,0.647841101,0,incongruent,GREEN,red,a,distractors/silence.wav,,,,,0,2,2,2,0,10,10,6,1029.678759,1031.678267,a,1,0.8799148,P15,2023-06-26_15h45.04.209,StroopExp,2022.2.5,59.12181636
b3,stroop_trial_condtions/b1.xlsx,0.667196906,0,incongruent,RED,green,s,distractors/silence.wav,,,,,0,2,2,2,0,11,11,36,1034.194336,1036.193348,s,1,1.1267486,P15,2023-06-26_15h45.04.209,StroopExp,2022.2.5,59.12181636
b3,stroop_trial_condtions/b1.xlsx,0.077117098,0,incongruent,BLUE,red,a,distractors/silence.wav,,,,,0,2,2,2,0,12,12,35,1038.693056,1040.691773,a,1,0.8236599,P15,2023-06-26_15h45.04.209,StroopExp,2022.2.5,59.12181636
b3,stroop_trial_condtions/b1.xlsx,0.976942146,0,congruent,BLUE,blue,d,distractors/silence.wav,,,,,0,2,2,2,0,13,13,13,1043.191019,1045.190416,d,1,1.1083385,P15,2023-06-26_15h45.04.209,StroopExp,2022.2.5,59.12181636
b3,stroop_trial_condtions/b1.xlsx,0.976569181,0,incongruent,YELLOW,blue,d,distractors/silence.wav,,,,,0,2,2,2,0,14,14,39,1047.689616,1049.689289,d,1,0.7757365,P15,2023-06-26_15h45.04.209,StroopExp,2022.2.5,59.12181636
b3,stroop_trial_condtions/b1.xlsx,0.249190077,0,congruent,YELLOW,yellow,f,distractors/silence.wav,,,,,0,2,2,2,0,15,15,16,1052.189321,1054.189424,f,1,0.8392454,P15,2023-06-26_15h45.04.209,StroopExp,2022.2.5,59.12181636
b3,stroop_trial_condtions/b1.xlsx,0.153196184,0,incongruent,YELLOW,green,s,distractors/silence.wav,,,,,0,2,2,2,0,16,16,31,1056.672861,1058.68937,s,1,0.9172983,P15,2023-06-26_15h45.04.209,StroopExp,2022.2.5,59.12181636
b3,stroop_trial_condtions/b1.xlsx,0.01936095,0,incongruent,YELLOW,green,s,distractors/silence.wav,,,,,0,2,2,2,0,17,17,2,1061.184666,1063.184469,s,1,0.6703932,P15,2023-06-26_15h45.04.209,StroopExp,2022.2.5,59.12181636
b3,stroop_trial_condtions/b1.xlsx,0.004767374,0,incongruent,RED,green,s,distractors/silence.wav,,,,,0,2,2,2,0,18,18,14,1065.70002,1067.699633,s,1,0.7005535,P15,2023-06-26_15h45.04.209,StroopExp,2022.2.5,59.12181636
b3,stroop_trial_condtions/b1.xlsx,0.660435133,0,congruent,GREEN,green,s,distractors/silence.wav,,,,,0,2,2,2,0,19,19,4,1070.215212,1072.215348,s,1,0.666873,P15,2023-06-26_15h45.04.209,StroopExp,2022.2.5,59.12181636
b3,stroop_trial_condtions/b1.xlsx,0.191332161,0,congruent,GREEN,green,s,distractors/silence.wav,,,,,0,2,2,2,0,20,20,43,1074.730538,1076.729538,s,1,0.6090444,P15,2023-06-26_15h45.04.209,StroopExp,2022.2.5,59.12181636
b3,stroop_trial_condtions/b1.xlsx,0.729684234,0,incongruent,BLUE,red,a,distractors/silence.wav,,,,,0,2,2,2,0,21,21,29,1079.245266,1081.244929,a,1,0.5478814,P15,2023-06-26_15h45.04.209,StroopExp,2022.2.5,59.12181636
b3,stroop_trial_condtions/b1.xlsx,0.896952266,0,incongruent,YELLOW,blue,d,distractors/silence.wav,,,,,0,2,2,2,0,22,22,25,1083.744147,1085.743783,d,1,0.8472214,P15,2023-06-26_15h45.04.209,StroopExp,2022.2.5,59.12181636
b3,stroop_trial_condtions/b1.xlsx,0.251874896,0,incongruent,GREEN,blue,d,distractors/silence.wav,,,,,0,2,2,2,0,23,23,37,1088.242557,1090.241922,d,1,0.6803555,P15,2023-06-26_15h45.04.209,StroopExp,2022.2.5,59.12181636
b3,stroop_trial_condtions/b1.xlsx,0.8328021,0,incongruent,GREEN,red,a,distractors/silence.wav,,,,,0,2,2,2,0,24,24,41,1092.75731,1094.756589,a,1,0.7665122,P15,2023-06-26_15h45.04.209,StroopExp,2022.2.5,59.12181636
b3,stroop_trial_condtions/b1.xlsx,0.68696849,0,congruent,YELLOW,yellow,f,distractors/silence.wav,,,,,0,2,2,2,0,25,25,45,1097.256383,1099.256757,f,1,0.8971387,P15,2023-06-26_15h45.04.209,StroopExp,2022.2.5,59.12181636
b3,stroop_trial_condtions/b1.xlsx,0.922953448,0,congruent,RED,red,a,distractors/silence.wav,,,,,0,2,2,2,0,26,26,40,1101.740092,1103.740331,a,1,0.7412766,P15,2023-06-26_15h45.04.209,StroopExp,2022.2.5,59.12181636
b3,stroop_trial_condtions/b1.xlsx,0.542994022,0,congruent,YELLOW,yellow,f,distractors/silence.wav,,,,,0,2,2,2,0,27,27,28,1106.236456,1108.235597,f,1,0.8244399,P15,2023-06-26_15h45.04.209,StroopExp,2022.2.5,59.12181636
b3,stroop_trial_condtions/b1.xlsx,0.548087945,0,congruent,YELLOW,yellow,f,distractors/silence.wav,,,,,0,2,2,2,0,28,28,32,1110.751277,1112.750871,f,1,0.7415341,P15,2023-06-26_15h45.04.209,StroopExp,2022.2.5,59.12181636
b3,stroop_trial_condtions/b1.xlsx,0.674408476,0,incongruent,BLUE,yellow,f,distractors/silence.wav,,,,,0,2,2,2,0,29,29,26,1115.250096,1117.249222,f,1,0.6934131,P15,2023-06-26_15h45.04.209,StroopExp,2022.2.5,59.12181636
b3,stroop_trial_condtions/b1.xlsx,0.493018261,0,congruent,BLUE,blue,d,distractors/silence.wav,,,,,0,2,2,2,0,30,30,7,1119.765007,1121.76461,d,1,0.8722195,P15,2023-06-26_15h45.04.209,StroopExp,2022.2.5,59.12181636
b3,stroop_trial_condtions/b1.xlsx,0.350328137,0,congruent,GREEN,green,s,distractors/silence.wav,,,,,0,2,2,2,0,31,31,20,1124.263703,1126.26299,s,1,0.5464102,P15,2023-06-26_15h45.04.209,StroopExp,2022.2.5,59.12181636
b3,stroop_trial_condtions/b1.xlsx,0.708976038,0,congruent,GREEN,green,s,distractors/silence.wav,,,,,0,2,2,2,0,32,32,8,1128.761975,1130.761534,s,1,0.5506577,P15,2023-06-26_15h45.04.209,StroopExp,2022.2.5,59.12181636
b3,stroop_trial_condtions/b1.xlsx,0.237396997,0,incongruent,GREEN,blue,d,distractors/silence.wav,,,,,0,2,2,2,0,33,33,18,1133.276983,1135.276899,d,1,0.5003987,P15,2023-06-26_15h45.04.209,StroopExp,2022.2.5,59.12181636
b3,stroop_trial_condtions/b1.xlsx,0.401782254,0,incongruent,YELLOW,red,a,distractors/silence.wav,,,,,0,2,2,2,0,34,34,12,1137.792384,1139.791775,a,1,0.9270187,P15,2023-06-26_15h45.04.209,StroopExp,2022.2.5,59.12181636
b3,stroop_trial_condtions/b1.xlsx,0.543070637,0,incongruent,BLUE,yellow,f,distractors/silence.wav,,,,,0,2,2,2,0,35,35,1,1142.307566,1144.30701,f,1,0.7230452,P15,2023-06-26_15h45.04.209,StroopExp,2022.2.5,59.12181636
b3,stroop_trial_condtions/b1.xlsx,0.579491601,0,congruent,RED,red,a,distractors/silence.wav,,,,,0,2,2,2,0,36,36,47,1146.790549,1148.790709,a,1,0.903031,P15,2023-06-26_15h45.04.209,StroopExp,2022.2.5,59.12181636
b3,stroop_trial_condtions/b1.xlsx,0.571650714,0,incongruent,YELLOW,red,a,distractors/silence.wav,,,,,0,2,2,2,0,37,37,5,1151.273804,1153.274058,a,1,0.718235,P15,2023-06-26_15h45.04.209,StroopExp,2022.2.5,59.12181636
b3,stroop_trial_condtions/b1.xlsx,0.625212421,0,congruent,GREEN,green,s,distractors/silence.wav,,,,,0,2,2,2,0,38,38,24,1155.769405,1157.768438,s,1,0.7531906,P15,2023-06-26_15h45.04.209,StroopExp,2022.2.5,59.12181636
b3,stroop_trial_condtions/b1.xlsx,0.256932032,0,congruent,BLUE,blue,d,distractors/silence.wav,,,,,0,2,2,2,0,39,39,30,1160.285264,1162.284139,d,1,0.6216385,P15,2023-06-26_15h45.04.209,StroopExp,2022.2.5,59.12181636
b3,stroop_trial_condtions/b1.xlsx,0.072914577,0,congruent,BLUE,blue,d,distractors/silence.wav,,,,,0,2,2,2,0,40,40,3,1164.783279,1166.782497,d,1,0.8734391,P15,2023-06-26_15h45.04.209,StroopExp,2022.2.5,59.12181636
b3,stroop_trial_condtions/b1.xlsx,0.199393364,0,congruent,YELLOW,yellow,f,distractors/silence.wav,,,,,0,2,2,2,0,41,41,23,1169.298571,,a,0,0.6308159,P15,2023-06-26_15h45.04.209,StroopExp,2022.2.5,59.12181636
b3,stroop_trial_condtions/b1.xlsx,0.870406961,0,congruent,YELLOW,yellow,f,distractors/silence.wav,,,,,0,2,2,2,0,42,42,11,1173.813613,1175.812939,f,1,0.6638413,P15,2023-06-26_15h45.04.209,StroopExp,2022.2.5,59.12181636
b3,stroop_trial_condtions/b1.xlsx,0.870893567,0,congruent,RED,red,a,distractors/silence.wav,,,,,0,2,2,2,0,43,43,9,1178.328696,1180.328048,a,1,0.6679024,P15,2023-06-26_15h45.04.209,StroopExp,2022.2.5,59.12181636
b3,stroop_trial_condtions/b1.xlsx,0.935097843,0,incongruent,RED,blue,d,distractors/silence.wav,,,,,0,2,2,2,0,44,44,17,1182.843866,1184.843258,d,1,0.6357628,P15,2023-06-26_15h45.04.209,StroopExp,2022.2.5,59.12181636
b3,stroop_trial_condtions/b1.xlsx,0.680507855,0,incongruent,GREEN,yellow,f,distractors/silence.wav,,,,,0,2,2,2,0,45,45,33,1187.35905,1189.358426,f,1,0.9165114,P15,2023-06-26_15h45.04.209,StroopExp,2022.2.5,59.12181636
b3,stroop_trial_condtions/b1.xlsx,0.027168618,0,incongruent,RED,yellow,f,distractors/silence.wav,,,,,0,2,2,2,0,46,46,27,1191.857849,1193.858107,f,1,0.7162998,P15,2023-06-26_15h45.04.209,StroopExp,2022.2.5,59.12181636
b3,stroop_trial_condtions/b1.xlsx,0.939662107,0,congruent,RED,red,a,distractors/silence.wav,,,,,0,2,2,2,0,47,47,21,1196.358166,1198.358497,a,1,0.7386632,P15,2023-06-26_15h45.04.209,StroopExp,2022.2.5,59.12181636
b4,stroop_trial_condtions/b3.xlsx,0.552411576,1,incongruent,GREEN,blue,d,distractors/4.wav,,,,,0,3,3,3,0,0,0,15,1362.533208,1364.532358,d,1,0.8335398,P15,2023-06-26_15h45.04.209,StroopExp,2022.2.5,59.12181636
b4,stroop_trial_condtions/b3.xlsx,0.457447166,1,congruent,RED,red,a,distractors/1.wav,,,,,0,3,3,3,0,1,1,41,1367.04823,1369.047909,a,1,0.6731447,P15,2023-06-26_15h45.04.209,StroopExp,2022.2.5,59.12181636
b4,stroop_trial_condtions/b3.xlsx,0.229480302,1,congruent,YELLOW,yellow,f,distractors/3.wav,,,,,0,3,3,3,0,2,2,0,1371.563333,1373.56271,f,1,0.6829649,P15,2023-06-26_15h45.04.209,StroopExp,2022.2.5,59.12181636
b4,stroop_trial_condtions/b3.xlsx,0.055781084,1,incongruent,RED,yellow,f,distractors/4.wav,,,,,0,3,3,3,0,3,3,43,1376.07928,,f,1,0.7037474,P15,2023-06-26_15h45.04.209,StroopExp,2022.2.5,59.12181636
b4,stroop_trial_condtions/b3.xlsx,0.749087818,1,congruent,GREEN,green,s,distractors/2.wav,,,,,0,3,3,3,0,4,4,46,1380.594033,1382.594167,s,1,0.6115059,P15,2023-06-26_15h45.04.209,StroopExp,2022.2.5,59.12181636
b4,stroop_trial_condtions/b3.xlsx,0.425610132,1,congruent,BLUE,blue,d,distractors/4.wav,,,,,0,3,3,3,0,5,5,9,1385.077599,1387.077778,d,1,0.5669479,P15,2023-06-26_15h45.04.209,StroopExp,2022.2.5,59.12181636
b4,stroop_trial_condtions/b3.xlsx,0.600008433,1,congruent,BLUE,blue,d,distractors/3.wav,,,,,0,3,3,3,0,6,6,42,1389.574497,,d,1,0.7728045,P15,2023-06-26_15h45.04.209,StroopExp,2022.2.5,59.12181636
b4,stroop_trial_condtions/b3.xlsx,0.521565887,1,incongruent,YELLOW,blue,d,distractors/3.wav,,,,,0,3,3,3,0,7,7,14,1394.08958,,d,1,0.5357664,P15,2023-06-26_15h45.04.209,StroopExp,2022.2.5,59.12181636
b4,stroop_trial_condtions/b3.xlsx,0.629652757,1,incongruent,GREEN,red,a,distractors/4.wav,,,,,0,3,3,3,0,8,8,24,1398.604264,1400.60353,a,1,0.872627,P15,2023-06-26_15h45.04.209,StroopExp,2022.2.5,59.12181636
b4,stroop_trial_condtions/b3.xlsx,0.794314825,1,incongruent,BLUE,red,a,distractors/1.wav,,,,,0,3,3,3,0,9,9,30,1403.102709,1405.102178,a,1,0.5833915,P15,2023-06-26_15h45.04.209,StroopExp,2022.2.5,59.12181636
b4,stroop_trial_condtions/b3.xlsx,0.264144016,1,congruent,RED,red,a,distractors/2.wav,,,,,0,3,3,3,0,10,10,6,1407.617936,,a,1,0.6677342,P15,2023-06-26_15h45.04.209,StroopExp,2022.2.5,59.12181636
b4,stroop_trial_condtions/b3.xlsx,0.999512659,1,incongruent,GREEN,yellow,f,distractors/1.wav,,,,,0,3,3,3,0,11,11,39,1412.133613,,f,1,1.0643713,P15,2023-06-26_15h45.04.209,StroopExp,2022.2.5,59.12181636
b4,stroop_trial_condtions/b3.xlsx,0.507803195,1,congruent,YELLOW,yellow,f,distractors/3.wav,,,,,0,3,3,3,0,12,12,45,1416.648153,1418.648005,f,1,0.6310452,P15,2023-06-26_15h45.04.209,StroopExp,2022.2.5,59.12181636
b4,stroop_trial_condtions/b3.xlsx,0.091035715,1,incongruent,BLUE,yellow,f,distractors/3.wav,,,,,0,3,3,3,0,13,13,7,1421.146545,1423.146262,f,1,0.6108887,P15,2023-06-26_15h45.04.209,StroopExp,2022.2.5,59.12181636
b4,stroop_trial_condtions/b3.xlsx,0.801010583,1,incongruent,RED,blue,d,distractors/2.wav,,,,,0,3,3,3,0,14,14,13,1425.662193,1427.661413,s,0,1.1796654,P15,2023-06-26_15h45.04.209,StroopExp,2022.2.5,59.12181636
b4,stroop_trial_condtions/b3.xlsx,0.927706406,1,incongruent,BLUE,red,a,distractors/1.wav,,,,,0,3,3,3,0,15,15,32,1430.144773,1432.144986,a,1,0.7003783,P15,2023-06-26_15h45.04.209,StroopExp,2022.2.5,59.12181636
b4,stroop_trial_condtions/b3.xlsx,0.22157821,1,incongruent,RED,green,s,distractors/4.wav,,,,,0,3,3,3,0,16,16,26,1434.645015,1436.645034,s,1,1.0181775,P15,2023-06-26_15h45.04.209,StroopExp,2022.2.5,59.12181636
b4,stroop_trial_condtions/b3.xlsx,0.337871903,1,incongruent,RED,yellow,f,distractors/4.wav,,,,,0,3,3,3,0,17,17,19,1439.140752,1441.140141,f,1,0.8087338,P15,2023-06-26_15h45.04.209,StroopExp,2022.2.5,59.12181636
b4,stroop_trial_condtions/b3.xlsx,0.10397583,1,incongruent,BLUE,green,s,distractors/1.wav,,,,,0,3,3,3,0,18,18,47,1443.655746,1445.655101,s,1,0.7438738,P15,2023-06-26_15h45.04.209,StroopExp,2022.2.5,59.12181636
b4,stroop_trial_condtions/b3.xlsx,0.504266909,1,congruent,BLUE,blue,d,distractors/2.wav,,,,,0,3,3,3,0,19,19,25,1448.170916,1450.170309,d,1,1.0538373,P15,2023-06-26_15h45.04.209,StroopExp,2022.2.5,59.12181636
b4,stroop_trial_condtions/b3.xlsx,0.422027805,1,incongruent,YELLOW,green,s,distractors/2.wav,,,,,0,3,3,3,0,20,20,33,1452.685894,1454.685369,s,1,0.9175102,P15,2023-06-26_15h45.04.209,StroopExp,2022.2.5,59.12181636
b4,stroop_trial_condtions/b3.xlsx,0.854349554,1,congruent,YELLOW,yellow,f,distractors/3.wav,,,,,0,3,3,3,0,21,21,27,1457.184246,1459.18349,f,1,0.5313986,P15,2023-06-26_15h45.04.209,StroopExp,2022.2.5,59.12181636
b4,stroop_trial_condtions/b3.xlsx,0.388628644,1,congruent,RED,red,a,distractors/4.wav,,,,,0,3,3,3,0,22,22,17,1461.68396,1463.69901,a,1,0.7368869,P15,2023-06-26_15h45.04.209,StroopExp,2022.2.5,59.12181636
b4,stroop_trial_condtions/b3.xlsx,0.585762683,1,congruent,GREEN,green,s,distractors/2.wav,,,,,0,3,3,3,0,23,23,18,1466.198108,1468.197408,s,1,0.5351823,P15,2023-06-26_15h45.04.209,StroopExp,2022.2.5,59.12181636
b4,stroop_trial_condtions/b3.xlsx,0.512136417,1,congruent,BLUE,blue,d,distractors/3.wav,,,,,0,3,3,3,0,24,24,40,1470.696597,1472.695927,d,1,0.5062165,P15,2023-06-26_15h45.04.209,StroopExp,2022.2.5,59.12181636
b4,stroop_trial_condtions/b3.xlsx,0.801680892,1,incongruent,YELLOW,red,a,distractors/3.wav,,,,,0,3,3,3,0,25,25,35,1475.195151,1477.195634,a,1,0.9303031,P15,2023-06-26_15h45.04.209,StroopExp,2022.2.5,59.12181636
b4,stroop_trial_condtions/b3.xlsx,0.217828855,1,incongruent,GREEN,blue,d,distractors/1.wav,,,,,0,3,3,3,0,26,26,44,1479.678963,1481.679098,d,1,1.4169989,P15,2023-06-26_15h45.04.209,StroopExp,2022.2.5,59.12181636
b4,stroop_trial_condtions/b3.xlsx,0.741548313,1,congruent,YELLOW,yellow,f,distractors/1.wav,,,,,0,3,3,3,0,27,27,22,1484.178823,,f,1,0.8448706,P15,2023-06-26_15h45.04.209,StroopExp,2022.2.5,59.12181636
b4,stroop_trial_condtions/b3.xlsx,0.304890161,1,incongruent,BLUE,green,s,distractors/1.wav,,,,,0,3,3,3,0,28,28,21,1488.690659,1490.690256,s,1,0.7945841,P15,2023-06-26_15h45.04.209,StroopExp,2022.2.5,59.12181636
b4,stroop_trial_condtions/b3.xlsx,0.010072896,1,congruent,RED,red,a,distractors/4.wav,,,,,0,3,3,3,0,29,29,37,1493.189149,1495.188678,a,1,0.7564848,P15,2023-06-26_15h45.04.209,StroopExp,2022.2.5,59.12181636
b4,stroop_trial_condtions/b3.xlsx,0.801341495,1,incongruent,BLUE,yellow,f,distractors/4.wav,,,,,0,3,3,3,0,30,30,4,1497.687723,1499.68708,f,1,1.1904466,P15,2023-06-26_15h45.04.209,StroopExp,2022.2.5,59.12181636
b4,stroop_trial_condtions/b3.xlsx,0.139842966,1,congruent,GREEN,green,s,distractors/2.wav,,,,,0,3,3,3,0,31,31,8,1502.185855,1504.185288,s,1,0.8474506,P15,2023-06-26_15h45.04.209,StroopExp,2022.2.5,59.12181636
b4,stroop_trial_condtions/b3.xlsx,0.468515905,1,incongruent,YELLOW,green,s,distractors/1.wav,,,,,0,3,3,3,0,32,32,3,1506.684414,1508.683679,s,1,0.8785526,P15,2023-06-26_15h45.04.209,StroopExp,2022.2.5,59.12181636
b4,stroop_trial_condtions/b3.xlsx,0.253236555,1,congruent,GREEN,green,s,distractors/1.wav,,,,,0,3,3,3,0,33,33,10,1511.183499,1513.182535,s,1,0.5893558,P15,2023-06-26_15h45.04.209,StroopExp,2022.2.5,59.12181636
b4,stroop_trial_condtions/b3.xlsx,0.759150938,1,congruent,YELLOW,yellow,f,distractors/3.wav,,,,,0,3,3,3,0,34,34,36,1515.69818,1517.697568,f,1,0.8006117,P15,2023-06-26_15h45.04.209,StroopExp,2022.2.5,59.12181636
b4,stroop_trial_condtions/b3.xlsx,0.6103536,1,incongruent,RED,green,s,distractors/2.wav,,,,,0,3,3,3,0,35,35,16,1520.213663,,s,1,0.8003785,P15,2023-06-26_15h45.04.209,StroopExp,2022.2.5,59.12181636
b4,stroop_trial_condtions/b3.xlsx,0.490953462,1,congruent,GREEN,green,s,distractors/4.wav,,,,,0,3,3,3,0,36,36,1,1524.712717,1526.712927,s,1,0.6341296,P15,2023-06-26_15h45.04.209,StroopExp,2022.2.5,59.12181636
b4,stroop_trial_condtions/b3.xlsx,0.289836119,1,incongruent,GREEN,yellow,f,distractors/2.wav,,,,,0,3,3,3,0,37,37,20,1529.196216,1531.196661,f,1,0.8671594,P15,2023-06-26_15h45.04.209,StroopExp,2022.2.5,59.12181636
b4,stroop_trial_condtions/b3.xlsx,0.965444972,1,congruent,BLUE,blue,d,distractors/2.wav,,,,,0,3,3,3,0,38,38,2,1533.692101,1535.691412,d,1,1.5548523,P15,2023-06-26_15h45.04.209,StroopExp,2022.2.5,59.12181636
b4,stroop_trial_condtions/b3.xlsx,0.677170745,1,congruent,GREEN,green,s,distractors/1.wav,,,,,0,3,3,3,0,39,39,5,1538.207402,1540.206665,s,1,0.7215524,P15,2023-06-26_15h45.04.209,StroopExp,2022.2.5,59.12181636
b4,stroop_trial_condtions/b3.xlsx,0.469997319,1,incongruent,YELLOW,red,a,distractors/2.wav,,,,,0,3,3,3,0,40,40,34,1542.722612,1544.72163,a,1,0.5248039,P15,2023-06-26_15h45.04.209,StroopExp,2022.2.5,59.12181636
b4,stroop_trial_condtions/b3.xlsx,0.871165656,1,congruent,YELLOW,yellow,f,distractors/1.wav,,,,,0,3,3,3,0,41,41,11,1547.237205,1549.236686,f,1,0.7403715,P15,2023-06-26_15h45.04.209,StroopExp,2022.2.5,59.12181636
b4,stroop_trial_condtions/b3.xlsx,0.509195284,1,congruent,RED,red,a,distractors/3.wav,,,,,0,3,3,3,0,42,42,23,1551.73587,1553.735393,a,1,0.705791,P15,2023-06-26_15h45.04.209,StroopExp,2022.2.5,59.12181636
b4,stroop_trial_condtions/b3.xlsx,0.56899076,1,congruent,BLUE,blue,d,distractors/3.wav,,,,,0,3,3,3,0,43,43,28,1556.23436,1558.233764,d,1,0.7512523,P15,2023-06-26_15h45.04.209,StroopExp,2022.2.5,59.12181636
b4,stroop_trial_condtions/b3.xlsx,0.017634479,1,incongruent,RED,blue,d,distractors/3.wav,,,,,0,3,3,3,0,44,44,31,1560.732939,1562.732297,d,1,0.8329625,P15,2023-06-26_15h45.04.209,StroopExp,2022.2.5,59.12181636
b4,stroop_trial_condtions/b3.xlsx,0.585825436,1,incongruent,YELLOW,blue,d,distractors/2.wav,,,,,0,3,3,3,0,45,45,12,1565.247891,1567.247628,d,1,0.8014123,P15,2023-06-26_15h45.04.209,StroopExp,2022.2.5,59.12181636
b4,stroop_trial_condtions/b3.xlsx,0.488087669,1,congruent,RED,red,a,distractors/4.wav,,,,,0,3,3,3,0,46,46,38,1569.763339,1571.763702,a,1,0.7300091,P15,2023-06-26_15h45.04.209,StroopExp,2022.2.5,59.12181636
b4,stroop_trial_condtions/b3.xlsx,0.214405789,1,incongruent,GREEN,red,a,distractors/4.wav,,,,,0,3,3,3,0,47,47,29,1574.246798,1576.246893,a,1,0.5429937,P15,2023-06-26_15h45.04.209,StroopExp,2022.2.5,59.12181636
