block_number,location,Index,has_distraction,trial_type,word,color,correct_key,distraction_file_name,practice_trials_4X5.thisRepN,practice_trials_4X5.thisTrialN,practice_trials_4X5.thisN,practice_trials_4X5.thisIndex,blocks.thisRepN,blocks.thisTrialN,blocks.thisN,blocks.thisIndex,trials.thisRepN,trials.thisTrialN,trials.thisN,trials.thisIndex,key_stroop.started,key_stroop.keys,key_stroop.corr,key_stroop.rt,key_stroop.stopped,participant,date,expName,psychopyVersion,frameRate
b1,stroop_trial_condtions/b1.xlsx,0.63243718,0,incongruent,RED,blue,d,distractors/silence.wav,,,,,0,4,4,4,0,0,0,19,1744.286541,d,1,1.3742203,1746.286021,P18,2023-06-27_14h51.40.061,StroopExp,2022.2.5,60.22180897
b1,stroop_trial_condtions/b1.xlsx,0.896952266,0,incongruent,YELLOW,blue,d,distractors/silence.wav,,,,,0,4,4,4,0,1,1,25,1748.784835,d,1,0.5494702,1750.784509,P18,2023-06-27_14h51.40.061,StroopExp,2022.2.5,60.22180897
b1,stroop_trial_condtions/b1.xlsx,0.708976038,0,congruent,GREEN,green,s,distractors/silence.wav,,,,,0,4,4,4,0,2,2,8,1753.28343,s,1,0.7113558,,P18,2023-06-27_14h51.40.061,StroopExp,2022.2.5,60.22180897
b1,stroop_trial_condtions/b1.xlsx,0.680507855,0,incongruent,GREEN,yellow,f,distractors/silence.wav,,,,,0,4,4,4,0,3,3,33,1757.798327,f,1,0.8269337,1759.79737,P18,2023-06-27_14h51.40.061,StroopExp,2022.2.5,60.22180897
b1,stroop_trial_condtions/b1.xlsx,0.493018261,0,congruent,BLUE,blue,d,distractors/silence.wav,,,,,0,4,4,4,0,4,4,7,1762.313741,d,1,1.4461148,1764.313457,P18,2023-06-27_14h51.40.061,StroopExp,2022.2.5,60.22180897
b1,stroop_trial_condtions/b1.xlsx,0.548087945,0,congruent,YELLOW,yellow,f,distractors/silence.wav,,,,,0,4,4,4,0,5,5,32,1766.812143,f,1,0.6891994,1768.811909,P18,2023-06-27_14h51.40.061,StroopExp,2022.2.5,60.22180897
b1,stroop_trial_condtions/b1.xlsx,0.647841101,0,incongruent,GREEN,red,a,distractors/silence.wav,,,,,0,4,4,4,0,6,6,6,1771.311055,a,1,0.784273,,P18,2023-06-27_14h51.40.061,StroopExp,2022.2.5,60.22180897
b1,stroop_trial_condtions/b1.xlsx,0.870406961,0,congruent,YELLOW,yellow,f,distractors/silence.wav,,,,,0,4,4,4,0,7,7,11,1775.809305,f,1,0.7691065,1777.808401,P18,2023-06-27_14h51.40.061,StroopExp,2022.2.5,60.22180897
b1,stroop_trial_condtions/b1.xlsx,0.733681542,0,incongruent,BLUE,green,s,distractors/silence.wav,,,,,0,4,4,4,0,8,8,15,1780.308707,s,1,0.8208457,1782.308676,P18,2023-06-27_14h51.40.061,StroopExp,2022.2.5,60.22180897
b1,stroop_trial_condtions/b1.xlsx,0.237396997,0,incongruent,GREEN,blue,d,distractors/silence.wav,,,,,0,4,4,4,0,9,9,18,1784.808683,d,1,0.8173612,1786.808763,P18,2023-06-27_14h51.40.061,StroopExp,2022.2.5,60.22180897
b1,stroop_trial_condtions/b1.xlsx,0.542994022,0,congruent,YELLOW,yellow,f,distractors/silence.wav,,,,,0,4,4,4,0,10,10,28,1789.304362,f,1,0.7528879,1791.304167,P18,2023-06-27_14h51.40.061,StroopExp,2022.2.5,60.22180897
b1,stroop_trial_condtions/b1.xlsx,0.68696849,0,congruent,YELLOW,yellow,f,distractors/silence.wav,,,,,0,4,4,4,0,11,11,45,1793.81968,f,1,0.5697015,1795.819302,P18,2023-06-27_14h51.40.061,StroopExp,2022.2.5,60.22180897
b1,stroop_trial_condtions/b1.xlsx,0.419315371,0,congruent,RED,red,a,distractors/silence.wav,,,,,0,4,4,4,0,12,12,38,1798.334736,a,1,0.7257004,1800.334179,P18,2023-06-27_14h51.40.061,StroopExp,2022.2.5,60.22180897
b1,stroop_trial_condtions/b1.xlsx,0.729684234,0,incongruent,BLUE,red,a,distractors/silence.wav,,,,,0,4,4,4,0,13,13,29,1802.850295,a,1,1.6319654,1804.849574,P18,2023-06-27_14h51.40.061,StroopExp,2022.2.5,60.22180897
b1,stroop_trial_condtions/b1.xlsx,0.744564924,0,congruent,GREEN,green,s,distractors/silence.wav,,,,,0,4,4,4,0,14,14,42,1807.364355,s,1,0.7900327,1809.364707,P18,2023-06-27_14h51.40.061,StroopExp,2022.2.5,60.22180897
b1,stroop_trial_condtions/b1.xlsx,0.935097843,0,incongruent,RED,blue,d,distractors/silence.wav,,,,,0,4,4,4,0,15,15,17,1811.880274,d,1,1.0730262,1813.879818,P18,2023-06-27_14h51.40.061,StroopExp,2022.2.5,60.22180897
b1,stroop_trial_condtions/b1.xlsx,0.077117098,0,incongruent,BLUE,red,a,distractors/silence.wav,,,,,0,4,4,4,0,16,16,35,1816.395428,a,1,1.7924947,1818.394732,P18,2023-06-27_14h51.40.061,StroopExp,2022.2.5,60.22180897
b1,stroop_trial_condtions/b1.xlsx,0.249190077,0,congruent,YELLOW,yellow,f,distractors/silence.wav,,,,,0,4,4,4,0,17,17,16,1820.910521,f,1,0.9582968,1822.909995,P18,2023-06-27_14h51.40.061,StroopExp,2022.2.5,60.22180897
b1,stroop_trial_condtions/b1.xlsx,0.401782254,0,incongruent,YELLOW,red,a,distractors/silence.wav,,,,,0,4,4,4,0,18,18,12,1825.425489,a,1,0.9039086,1827.425472,P18,2023-06-27_14h51.40.061,StroopExp,2022.2.5,60.22180897
b1,stroop_trial_condtions/b1.xlsx,0.256932032,0,congruent,BLUE,blue,d,distractors/silence.wav,,,,,0,4,4,4,0,19,19,30,1829.909454,d,1,1.1599075,1831.909606,P18,2023-06-27_14h51.40.061,StroopExp,2022.2.5,60.22180897
b1,stroop_trial_condtions/b1.xlsx,0.976942146,0,congruent,BLUE,blue,d,distractors/silence.wav,,,,,0,4,4,4,0,20,20,13,1834.409677,d,1,0.721437,1836.422234,P18,2023-06-27_14h51.40.061,StroopExp,2022.2.5,60.22180897
b1,stroop_trial_condtions/b1.xlsx,0.660435133,0,congruent,GREEN,green,s,distractors/silence.wav,,,,,0,4,4,4,0,21,21,4,1838.904495,s,1,1.3048171,1840.903567,P18,2023-06-27_14h51.40.061,StroopExp,2022.2.5,60.22180897
b1,stroop_trial_condtions/b1.xlsx,0.583196525,0,congruent,BLUE,blue,d,distractors/silence.wav,,,,,0,4,4,4,0,22,22,44,1843.436261,d,1,0.8530113,1845.43593,P18,2023-06-27_14h51.40.061,StroopExp,2022.2.5,60.22180897
b1,stroop_trial_condtions/b1.xlsx,0.830948331,0,incongruent,BLUE,green,s,distractors/silence.wav,,,,,0,4,4,4,0,23,23,46,1847.951494,s,1,0.7312133,1849.950619,P18,2023-06-27_14h51.40.061,StroopExp,2022.2.5,60.22180897
b1,stroop_trial_condtions/b1.xlsx,0.543070637,0,incongruent,BLUE,yellow,f,distractors/silence.wav,,,,,0,4,4,4,0,24,24,1,1852.4498,f,1,0.8207935,1854.449168,P18,2023-06-27_14h51.40.061,StroopExp,2022.2.5,60.22180897
b1,stroop_trial_condtions/b1.xlsx,0.01936095,0,incongruent,YELLOW,green,s,distractors/silence.wav,,,,,0,4,4,4,0,25,25,2,1856.964977,s,1,1.1738422,1858.964287,P18,2023-06-27_14h51.40.061,StroopExp,2022.2.5,60.22180897
b1,stroop_trial_condtions/b1.xlsx,0.8328021,0,incongruent,GREEN,red,a,distractors/silence.wav,,,,,0,4,4,4,0,26,26,41,1861.479945,a,1,0.6173654,1863.479763,P18,2023-06-27_14h51.40.061,StroopExp,2022.2.5,60.22180897
b1,stroop_trial_condtions/b1.xlsx,0.579491601,0,congruent,RED,red,a,distractors/silence.wav,,,,,0,4,4,4,0,27,27,47,1865.978583,a,1,0.7284957,1867.978307,P18,2023-06-27_14h51.40.061,StroopExp,2022.2.5,60.22180897
b1,stroop_trial_condtions/b1.xlsx,0.983636333,0,incongruent,RED,yellow,f,distractors/silence.wav,,,,,0,4,4,4,0,28,28,10,1870.476945,f,1,1.2343674,1872.476103,P18,2023-06-27_14h51.40.061,StroopExp,2022.2.5,60.22180897
b1,stroop_trial_condtions/b1.xlsx,0.153196184,0,incongruent,YELLOW,green,s,distractors/silence.wav,,,,,0,4,4,4,0,29,29,31,1874.976174,s,1,1.0132088,1876.97634,P18,2023-06-27_14h51.40.061,StroopExp,2022.2.5,60.22180897
b1,stroop_trial_condtions/b1.xlsx,0.939662107,0,congruent,RED,red,a,distractors/silence.wav,,,,,0,4,4,4,0,30,30,21,1879.459706,a,1,0.7513279,1881.460268,P18,2023-06-27_14h51.40.061,StroopExp,2022.2.5,60.22180897
b1,stroop_trial_condtions/b1.xlsx,0.870893567,0,congruent,RED,red,a,distractors/silence.wav,,,,,0,4,4,4,0,31,31,9,1883.955819,a,1,0.6674154,1885.95511,P18,2023-06-27_14h51.40.061,StroopExp,2022.2.5,60.22180897
b1,stroop_trial_condtions/b1.xlsx,0.191332161,0,congruent,GREEN,green,s,distractors/silence.wav,,,,,0,4,4,4,0,32,32,43,1888.470839,s,1,1.2835014,1890.470638,P18,2023-06-27_14h51.40.061,StroopExp,2022.2.5,60.22180897
b1,stroop_trial_condtions/b1.xlsx,0.072914577,0,congruent,BLUE,blue,d,distractors/silence.wav,,,,,0,4,4,4,0,33,33,3,1892.969491,d,1,0.7360621,1894.96885,P18,2023-06-27_14h51.40.061,StroopExp,2022.2.5,60.22180897
b1,stroop_trial_condtions/b1.xlsx,0.667196906,0,incongruent,RED,green,s,distractors/silence.wav,,,,,0,4,4,4,0,34,34,36,1897.467661,s,1,1.1134877,1899.46701,P18,2023-06-27_14h51.40.061,StroopExp,2022.2.5,60.22180897
b1,stroop_trial_condtions/b1.xlsx,0.936669537,0,incongruent,GREEN,yellow,f,distractors/silence.wav,,,,,0,4,4,4,0,35,35,34,1901.98234,f,1,1.0780522,1903.982014,P18,2023-06-27_14h51.40.061,StroopExp,2022.2.5,60.22180897
b1,stroop_trial_condtions/b1.xlsx,0.625212421,0,congruent,GREEN,green,s,distractors/silence.wav,,,,,0,4,4,4,0,36,36,24,1906.498615,s,1,1.2624799,,P18,2023-06-27_14h51.40.061,StroopExp,2022.2.5,60.22180897
b1,stroop_trial_condtions/b1.xlsx,0.451597903,0,congruent,BLUE,blue,d,distractors/silence.wav,,,,,0,4,4,4,0,37,37,22,1911.013677,d,1,0.8738142,,P18,2023-06-27_14h51.40.061,StroopExp,2022.2.5,60.22180897
b1,stroop_trial_condtions/b1.xlsx,0.971858016,0,congruent,RED,red,a,distractors/silence.wav,,,,,0,4,4,4,0,38,38,0,1915.528664,a,1,0.783518,1917.527852,P18,2023-06-27_14h51.40.061,StroopExp,2022.2.5,60.22180897
b1,stroop_trial_condtions/b1.xlsx,0.571650714,0,incongruent,YELLOW,red,a,distractors/silence.wav,,,,,0,4,4,4,0,39,39,5,1920.027314,a,1,0.8139578,1922.02722,P18,2023-06-27_14h51.40.061,StroopExp,2022.2.5,60.22180897
b1,stroop_trial_condtions/b1.xlsx,0.027168618,0,incongruent,RED,yellow,f,distractors/silence.wav,,,,,0,4,4,4,0,40,40,27,1924.527332,f,1,1.8341084,1926.527236,P18,2023-06-27_14h51.40.061,StroopExp,2022.2.5,60.22180897
b1,stroop_trial_condtions/b1.xlsx,0.004767374,0,incongruent,RED,green,s,distractors/silence.wav,,,,,0,4,4,4,0,41,41,14,1929.027352,s,1,0.7256803,,P18,2023-06-27_14h51.40.061,StroopExp,2022.2.5,60.22180897
b1,stroop_trial_condtions/b1.xlsx,0.976569181,0,incongruent,YELLOW,blue,d,distractors/silence.wav,,,,,0,4,4,4,0,42,42,39,1933.539085,d,1,1.0361934,1935.538545,P18,2023-06-27_14h51.40.061,StroopExp,2022.2.5,60.22180897
b1,stroop_trial_condtions/b1.xlsx,0.251874896,0,incongruent,GREEN,blue,d,distractors/silence.wav,,,,,0,4,4,4,0,43,43,37,1938.054243,d,1,0.5828743,1940.053475,P18,2023-06-27_14h51.40.061,StroopExp,2022.2.5,60.22180897
b1,stroop_trial_condtions/b1.xlsx,0.922953448,0,congruent,RED,red,a,distractors/silence.wav,,,,,0,4,4,4,0,44,44,40,1942.569003,a,1,0.713338,1944.568981,P18,2023-06-27_14h51.40.061,StroopExp,2022.2.5,60.22180897
b1,stroop_trial_condtions/b1.xlsx,0.350328137,0,congruent,GREEN,green,s,distractors/silence.wav,,,,,0,4,4,4,0,45,45,20,1947.084606,s,1,1.3417199,,P18,2023-06-27_14h51.40.061,StroopExp,2022.2.5,60.22180897
b1,stroop_trial_condtions/b1.xlsx,0.674408476,0,incongruent,BLUE,yellow,f,distractors/silence.wav,,,,,0,4,4,4,0,46,46,26,1951.599704,f,1,1.0528122,1953.59896,P18,2023-06-27_14h51.40.061,StroopExp,2022.2.5,60.22180897
b1,stroop_trial_condtions/b1.xlsx,0.199393364,0,congruent,YELLOW,yellow,f,distractors/silence.wav,,,,,0,4,4,4,0,47,47,23,1956.098226,f,1,0.6848261,,P18,2023-06-27_14h51.40.061,StroopExp,2022.2.5,60.22180897
b2,stroop_trial_condtions/b2.xlsx,0.813514666,1,incongruent,GREEN,red,a,distractors/3.wav,,,,,0,1,1,1,0,0,0,40,831.5955725,a,1,1.0565661,833.61839,P18,2023-06-27_14h51.40.061,StroopExp,2022.2.5,60.22180897
b2,stroop_trial_condtions/b2.xlsx,0.329333187,1,incongruent,YELLOW,green,s,distractors/2.wav,,,,,0,1,1,1,0,1,1,6,836.0792179,s,1,1.140723,838.0792288,P18,2023-06-27_14h51.40.061,StroopExp,2022.2.5,60.22180897
b2,stroop_trial_condtions/b2.xlsx,0.144418396,1,congruent,GREEN,green,s,distractors/1.wav,,,,,0,1,1,1,0,2,2,43,840.5956006,s,1,0.6678871,842.5923539,P18,2023-06-27_14h51.40.061,StroopExp,2022.2.5,60.22180897
b2,stroop_trial_condtions/b2.xlsx,0.566650633,1,incongruent,GREEN,yellow,f,distractors/3.wav,,,,,0,1,1,1,0,3,3,0,845.090994,f,1,0.8591648,847.0931824,P18,2023-06-27_14h51.40.061,StroopExp,2022.2.5,60.22180897
b2,stroop_trial_condtions/b2.xlsx,0.814062715,1,congruent,BLUE,blue,d,distractors/2.wav,,,,,0,1,1,1,0,4,4,36,849.5894316,d,1,1.1059404,851.5888328,P18,2023-06-27_14h51.40.061,StroopExp,2022.2.5,60.22180897
b2,stroop_trial_condtions/b2.xlsx,0.231567411,1,congruent,GREEN,green,s,distractors/4.wav,,,,,0,1,1,1,0,5,5,8,854.1048487,s,1,1.165767,856.1040662,P18,2023-06-27_14h51.40.061,StroopExp,2022.2.5,60.22180897
b2,stroop_trial_condtions/b2.xlsx,0.767680624,1,congruent,BLUE,blue,d,distractors/3.wav,,,,,0,1,1,1,0,6,6,32,858.6200899,d,1,0.9675717,860.6194842,P18,2023-06-27_14h51.40.061,StroopExp,2022.2.5,60.22180897
b2,stroop_trial_condtions/b2.xlsx,0.25539718,1,congruent,YELLOW,yellow,f,distractors/1.wav,,,,,0,1,1,1,0,7,7,45,863.1349129,f,1,0.9471742,865.1345197,P18,2023-06-27_14h51.40.061,StroopExp,2022.2.5,60.22180897
b2,stroop_trial_condtions/b2.xlsx,0.324070625,1,congruent,YELLOW,yellow,f,distractors/3.wav,,,,,0,1,1,1,0,8,8,15,867.650472,f,1,0.8353057,,P18,2023-06-27_14h51.40.061,StroopExp,2022.2.5,60.22180897
b2,stroop_trial_condtions/b2.xlsx,0.196366522,1,incongruent,GREEN,red,a,distractors/1.wav,,,,,0,1,1,1,0,9,9,9,872.1653225,a,1,1.0598617,874.1650875,P18,2023-06-27_14h51.40.061,StroopExp,2022.2.5,60.22180897
b2,stroop_trial_condtions/b2.xlsx,0.488971465,1,incongruent,BLUE,red,a,distractors/4.wav,,,,,0,1,1,1,0,10,10,29,876.6806038,a,1,0.6971245,878.6799272,P18,2023-06-27_14h51.40.061,StroopExp,2022.2.5,60.22180897
b2,stroop_trial_condtions/b2.xlsx,0.858613787,1,incongruent,YELLOW,blue,d,distractors/3.wav,,,,,0,1,1,1,0,11,11,44,881.179686,d,1,1.4083286,883.1799274,P18,2023-06-27_14h51.40.061,StroopExp,2022.2.5,60.22180897
b2,stroop_trial_condtions/b2.xlsx,0.164948028,1,congruent,GREEN,green,s,distractors/4.wav,,,,,0,1,1,1,0,12,12,23,885.6631782,s,1,1.8545783,887.6630877,P18,2023-06-27_14h51.40.061,StroopExp,2022.2.5,60.22180897
b2,stroop_trial_condtions/b2.xlsx,0.067305336,1,incongruent,BLUE,yellow,f,distractors/3.wav,,,,,0,1,1,1,0,13,13,26,890.1424611,f,1,1.6527275,892.1416172,P18,2023-06-27_14h51.40.061,StroopExp,2022.2.5,60.22180897
b2,stroop_trial_condtions/b2.xlsx,0.776926078,1,incongruent,GREEN,blue,d,distractors/4.wav,,,,,0,1,1,1,0,14,14,22,894.65786,d,1,1.6421846,896.6566137,P18,2023-06-27_14h51.40.061,StroopExp,2022.2.5,60.22180897
b2,stroop_trial_condtions/b2.xlsx,0.483274464,1,congruent,YELLOW,yellow,f,distractors/1.wav,,,,,0,1,1,1,0,15,15,24,899.1561862,f,1,0.7728992,901.1556306,P18,2023-06-27_14h51.40.061,StroopExp,2022.2.5,60.22180897
b2,stroop_trial_condtions/b2.xlsx,0.295023129,1,incongruent,BLUE,red,a,distractors/1.wav,,,,,0,1,1,1,0,16,16,37,903.6709989,a,1,0.889048,905.670122,P18,2023-06-27_14h51.40.061,StroopExp,2022.2.5,60.22180897
b2,stroop_trial_condtions/b2.xlsx,0.211743172,1,congruent,YELLOW,yellow,f,distractors/2.wav,,,,,0,1,1,1,0,17,17,38,908.1862871,f,1,0.7268786,910.1860786,P18,2023-06-27_14h51.40.061,StroopExp,2022.2.5,60.22180897
b2,stroop_trial_condtions/b2.xlsx,0.838430071,1,congruent,RED,red,a,distractors/1.wav,,,,,0,1,1,1,0,18,18,25,912.6851299,a,1,0.7326439,,P18,2023-06-27_14h51.40.061,StroopExp,2022.2.5,60.22180897
b2,stroop_trial_condtions/b2.xlsx,0.522476173,1,incongruent,RED,blue,d,distractors/1.wav,,,,,0,1,1,1,0,19,19,20,917.1999731,d,1,0.7873999,919.1992026,P18,2023-06-27_14h51.40.061,StroopExp,2022.2.5,60.22180897
b2,stroop_trial_condtions/b2.xlsx,0.973471425,1,congruent,BLUE,blue,d,distractors/2.wav,,,,,0,1,1,1,0,20,20,1,921.7154983,d,1,0.7241492,,P18,2023-06-27_14h51.40.061,StroopExp,2022.2.5,60.22180897
b2,stroop_trial_condtions/b2.xlsx,0.065023824,1,incongruent,GREEN,yellow,f,distractors/1.wav,,,,,0,1,1,1,0,21,21,7,926.2302094,f,1,1.0476156,928.2301323,P18,2023-06-27_14h51.40.061,StroopExp,2022.2.5,60.22180897
b2,stroop_trial_condtions/b2.xlsx,0.128195372,1,incongruent,YELLOW,red,a,distractors/3.wav,,,,,0,1,1,1,0,22,22,35,930.7138783,a,1,0.8598376,932.7139925,P18,2023-06-27_14h51.40.061,StroopExp,2022.2.5,60.22180897
b2,stroop_trial_condtions/b2.xlsx,0.340063562,1,congruent,YELLOW,yellow,f,distractors/3.wav,,,,,0,1,1,1,0,23,23,12,935.2140202,f,1,1.5967998,937.2308929,P18,2023-06-27_14h51.40.061,StroopExp,2022.2.5,60.22180897
b2,stroop_trial_condtions/b2.xlsx,0.108398141,1,incongruent,RED,green,s,distractors/1.wav,,,,,0,1,1,1,0,24,24,14,939.7255297,s,1,1.7462097,941.7252568,P18,2023-06-27_14h51.40.061,StroopExp,2022.2.5,60.22180897
b2,stroop_trial_condtions/b2.xlsx,0.88570862,1,congruent,BLUE,blue,d,distractors/1.wav,,,,,0,1,1,1,0,25,25,16,944.2245038,d,1,0.7972419,,P18,2023-06-27_14h51.40.061,StroopExp,2022.2.5,60.22180897
b2,stroop_trial_condtions/b2.xlsx,0.330833954,1,incongruent,BLUE,yellow,f,distractors/4.wav,,,,,0,1,1,1,0,26,26,5,948.7392109,f,1,0.8223227,950.7385384,P18,2023-06-27_14h51.40.061,StroopExp,2022.2.5,60.22180897
b2,stroop_trial_condtions/b2.xlsx,0.796267692,1,incongruent,RED,blue,d,distractors/4.wav,,,,,0,1,1,1,0,27,27,46,953.2379991,d,1,1.2975866,955.2369267,P18,2023-06-27_14h51.40.061,StroopExp,2022.2.5,60.22180897
b2,stroop_trial_condtions/b2.xlsx,0.531759185,1,congruent,YELLOW,yellow,f,distractors/2.wav,,,,,0,1,1,1,0,28,28,34,957.7528719,f,1,0.7583234,959.7524195,P18,2023-06-27_14h51.40.061,StroopExp,2022.2.5,60.22180897
b2,stroop_trial_condtions/b2.xlsx,0.666141953,1,congruent,RED,red,a,distractors/2.wav,,,,,0,1,1,1,0,29,29,3,962.2682607,a,1,0.8168529,,P18,2023-06-27_14h51.40.061,StroopExp,2022.2.5,60.22180897
b2,stroop_trial_condtions/b2.xlsx,0.900567422,1,congruent,BLUE,blue,d,distractors/2.wav,,,,,0,1,1,1,0,30,30,30,966.7835308,d,1,1.1703883,,P18,2023-06-27_14h51.40.061,StroopExp,2022.2.5,60.22180897
b2,stroop_trial_condtions/b2.xlsx,0.034332485,1,incongruent,YELLOW,red,a,distractors/2.wav,,,,,0,1,1,1,0,31,31,13,971.2986062,a,1,0.9366673,,P18,2023-06-27_14h51.40.061,StroopExp,2022.2.5,60.22180897
b2,stroop_trial_condtions/b2.xlsx,0.42490795,1,congruent,GREEN,green,s,distractors/2.wav,,,,,0,1,1,1,0,32,32,4,975.8144047,s,1,0.8670326,977.8145989,P18,2023-06-27_14h51.40.061,StroopExp,2022.2.5,60.22180897
b2,stroop_trial_condtions/b2.xlsx,0.107154682,1,incongruent,BLUE,green,s,distractors/3.wav,,,,,0,1,1,1,0,33,33,33,980.3145604,s,1,1.0606345,982.3142905,P18,2023-06-27_14h51.40.061,StroopExp,2022.2.5,60.22180897
b2,stroop_trial_condtions/b2.xlsx,0.011991742,1,congruent,RED,red,a,distractors/4.wav,,,,,0,1,1,1,0,34,34,42,984.8113168,a,1,0.6903241,,P18,2023-06-27_14h51.40.061,StroopExp,2022.2.5,60.22180897
b2,stroop_trial_condtions/b2.xlsx,0.492685632,1,congruent,RED,red,a,distractors/4.wav,,,,,0,1,1,1,0,35,35,27,989.3256382,a,1,0.8060865,991.3246611,P18,2023-06-27_14h51.40.061,StroopExp,2022.2.5,60.22180897
b2,stroop_trial_condtions/b2.xlsx,0.087696882,1,incongruent,RED,green,s,distractors/3.wav,,,,,0,1,1,1,0,36,36,47,993.8239839,s,1,1.2823771,,P18,2023-06-27_14h51.40.061,StroopExp,2022.2.5,60.22180897
b2,stroop_trial_condtions/b2.xlsx,0.361479091,1,congruent,GREEN,green,s,distractors/1.wav,,,,,0,1,1,1,0,37,37,17,998.3396088,s,1,0.6507386,1000.338593,P18,2023-06-27_14h51.40.061,StroopExp,2022.2.5,60.22180897
b2,stroop_trial_condtions/b2.xlsx,0.090889572,1,congruent,RED,red,a,distractors/3.wav,,,,,0,1,1,1,0,38,38,41,1002.83763,a,1,0.7561468,1004.837141,P18,2023-06-27_14h51.40.061,StroopExp,2022.2.5,60.22180897
b2,stroop_trial_condtions/b2.xlsx,0.629589964,1,congruent,RED,red,a,distractors/2.wav,,,,,0,1,1,1,0,39,39,11,1007.335848,a,1,0.5600959,1009.335173,P18,2023-06-27_14h51.40.061,StroopExp,2022.2.5,60.22180897
b2,stroop_trial_condtions/b2.xlsx,0.50307865,1,incongruent,YELLOW,green,s,distractors/4.wav,,,,,0,1,1,1,0,40,40,19,1011.851328,s,1,1.1737937,1013.850732,P18,2023-06-27_14h51.40.061,StroopExp,2022.2.5,60.22180897
b2,stroop_trial_condtions/b2.xlsx,0.966821302,1,congruent,BLUE,blue,d,distractors/2.wav,,,,,0,1,1,1,0,41,41,21,1016.349931,d,1,0.801612,1018.349323,P18,2023-06-27_14h51.40.061,StroopExp,2022.2.5,60.22180897
b2,stroop_trial_condtions/b2.xlsx,0.713195007,1,congruent,GREEN,green,s,distractors/2.wav,,,,,0,1,1,1,0,42,42,10,1020.864908,s,1,0.9668203,1022.864951,P18,2023-06-27_14h51.40.061,StroopExp,2022.2.5,60.22180897
b2,stroop_trial_condtions/b2.xlsx,0.828978616,1,incongruent,RED,yellow,f,distractors/4.wav,,,,,0,1,1,1,0,43,43,31,1025.348665,f,1,1.0529167,1027.348442,P18,2023-06-27_14h51.40.061,StroopExp,2022.2.5,60.22180897
b2,stroop_trial_condtions/b2.xlsx,0.500798324,1,incongruent,BLUE,green,s,distractors/1.wav,,,,,0,1,1,1,0,44,44,18,1029.831663,s,1,1.1333451,1031.831813,P18,2023-06-27_14h51.40.061,StroopExp,2022.2.5,60.22180897
b2,stroop_trial_condtions/b2.xlsx,0.155643688,1,incongruent,YELLOW,blue,d,distractors/3.wav,,,,,0,1,1,1,0,45,45,39,1034.326846,None,0,,1036.326283,P18,2023-06-27_14h51.40.061,StroopExp,2022.2.5,60.22180897
b2,stroop_trial_condtions/b2.xlsx,0.733185206,1,incongruent,GREEN,blue,d,distractors/4.wav,,,,,0,1,1,1,0,46,46,28,1038.825629,d,1,0.8000421,1040.824743,P18,2023-06-27_14h51.40.061,StroopExp,2022.2.5,60.22180897
b2,stroop_trial_condtions/b2.xlsx,0.04164908,1,incongruent,RED,yellow,f,distractors/4.wav,,,,,0,1,1,1,0,47,47,2,1043.34084,f,1,1.3027761,,P18,2023-06-27_14h51.40.061,StroopExp,2022.2.5,60.22180897
b3,stroop_trial_condtions/b1.xlsx,0.936669537,0,incongruent,GREEN,yellow,f,distractors/silence.wav,,,,,0,2,2,2,0,0,0,34,1146.239277,f,1,0.9683767,1148.238698,P18,2023-06-27_14h51.40.061,StroopExp,2022.2.5,60.22180897
b3,stroop_trial_condtions/b1.xlsx,0.733681542,0,incongruent,BLUE,green,s,distractors/silence.wav,,,,,0,2,2,2,0,1,1,15,1150.737849,s,1,1.2322676,,P18,2023-06-27_14h51.40.061,StroopExp,2022.2.5,60.22180897
b3,stroop_trial_condtions/b1.xlsx,0.548087945,0,congruent,YELLOW,yellow,f,distractors/silence.wav,,,,,0,2,2,2,0,2,2,32,1155.252722,f,1,0.866954,1157.252267,P18,2023-06-27_14h51.40.061,StroopExp,2022.2.5,60.22180897
b3,stroop_trial_condtions/b1.xlsx,0.830948331,0,incongruent,BLUE,green,s,distractors/silence.wav,,,,,0,2,2,2,0,3,3,46,1159.751167,s,1,1.9157629,1161.751303,P18,2023-06-27_14h51.40.061,StroopExp,2022.2.5,60.22180897
b3,stroop_trial_condtions/b1.xlsx,0.971858016,0,congruent,RED,red,a,distractors/silence.wav,,,,,0,2,2,2,0,4,4,0,1164.250161,a,1,0.9691215,1166.250785,P18,2023-06-27_14h51.40.061,StroopExp,2022.2.5,60.22180897
b3,stroop_trial_condtions/b1.xlsx,0.199393364,0,congruent,YELLOW,yellow,f,distractors/silence.wav,,,,,0,2,2,2,0,5,5,23,1168.733764,f,1,0.6919542,1170.733668,P18,2023-06-27_14h51.40.061,StroopExp,2022.2.5,60.22180897
b3,stroop_trial_condtions/b1.xlsx,0.8328021,0,incongruent,GREEN,red,a,distractors/silence.wav,,,,,0,2,2,2,0,6,6,41,1173.230157,a,1,0.9613195,1175.229196,P18,2023-06-27_14h51.40.061,StroopExp,2022.2.5,60.22180897
b3,stroop_trial_condtions/b1.xlsx,0.922953448,0,congruent,RED,red,a,distractors/silence.wav,,,,,0,2,2,2,0,7,7,40,1177.728518,a,1,0.6501545,1179.728403,P18,2023-06-27_14h51.40.061,StroopExp,2022.2.5,60.22180897
b3,stroop_trial_condtions/b1.xlsx,0.579491601,0,congruent,RED,red,a,distractors/silence.wav,,,,,0,2,2,2,0,8,8,47,1182.243511,a,1,0.6285627,1184.243174,P18,2023-06-27_14h51.40.061,StroopExp,2022.2.5,60.22180897
b3,stroop_trial_condtions/b1.xlsx,0.571650714,0,incongruent,YELLOW,red,a,distractors/silence.wav,,,,,0,2,2,2,0,9,9,5,1186.759022,a,1,0.5566565,1188.757869,P18,2023-06-27_14h51.40.061,StroopExp,2022.2.5,60.22180897
b3,stroop_trial_condtions/b1.xlsx,0.256932032,0,congruent,BLUE,blue,d,distractors/silence.wav,,,,,0,2,2,2,0,10,10,30,1191.27364,d,1,1.3476934,1193.273485,P18,2023-06-27_14h51.40.061,StroopExp,2022.2.5,60.22180897
b3,stroop_trial_condtions/b1.xlsx,0.674408476,0,incongruent,BLUE,yellow,f,distractors/silence.wav,,,,,0,2,2,2,0,11,11,26,1195.772372,f,1,0.9245205,1197.771758,P18,2023-06-27_14h51.40.061,StroopExp,2022.2.5,60.22180897
b3,stroop_trial_condtions/b1.xlsx,0.251874896,0,incongruent,GREEN,blue,d,distractors/silence.wav,,,,,0,2,2,2,0,12,12,37,1200.287634,d,1,1.0343011,1202.287092,P18,2023-06-27_14h51.40.061,StroopExp,2022.2.5,60.22180897
b3,stroop_trial_condtions/b1.xlsx,0.543070637,0,incongruent,BLUE,yellow,f,distractors/silence.wav,,,,,0,2,2,2,0,13,13,1,1204.78626,f,1,0.8473929,1206.78496,P18,2023-06-27_14h51.40.061,StroopExp,2022.2.5,60.22180897
b3,stroop_trial_condtions/b1.xlsx,0.976569181,0,incongruent,YELLOW,blue,d,distractors/silence.wav,,,,,0,2,2,2,0,14,14,39,1209.30123,d,1,1.0096765,1211.30084,P18,2023-06-27_14h51.40.061,StroopExp,2022.2.5,60.22180897
b3,stroop_trial_condtions/b1.xlsx,0.68696849,0,congruent,YELLOW,yellow,f,distractors/silence.wav,,,,,0,2,2,2,0,15,15,45,1213.784352,f,1,0.9166075,1215.784202,P18,2023-06-27_14h51.40.061,StroopExp,2022.2.5,60.22180897
b3,stroop_trial_condtions/b1.xlsx,0.419315371,0,congruent,RED,red,a,distractors/silence.wav,,,,,0,2,2,2,0,16,16,38,1218.267856,a,1,0.6336361,1220.264071,P18,2023-06-27_14h51.40.061,StroopExp,2022.2.5,60.22180897
b3,stroop_trial_condtions/b1.xlsx,0.983636333,0,incongruent,RED,yellow,f,distractors/silence.wav,,,,,0,2,2,2,0,17,17,10,1222.796449,f,1,0.925183,1224.796119,P18,2023-06-27_14h51.40.061,StroopExp,2022.2.5,60.22180897
b3,stroop_trial_condtions/b1.xlsx,0.027168618,0,incongruent,RED,yellow,f,distractors/silence.wav,,,,,0,2,2,2,0,18,18,27,1227.295259,f,1,0.8239292,1229.294334,P18,2023-06-27_14h51.40.061,StroopExp,2022.2.5,60.22180897
b3,stroop_trial_condtions/b1.xlsx,0.935097843,0,incongruent,RED,blue,d,distractors/silence.wav,,,,,0,2,2,2,0,19,19,17,1231.793714,d,1,1.7989674,,P18,2023-06-27_14h51.40.061,StroopExp,2022.2.5,60.22180897
b3,stroop_trial_condtions/b1.xlsx,0.153196184,0,incongruent,YELLOW,green,s,distractors/silence.wav,,,,,0,2,2,2,0,20,20,31,1236.308596,s,1,1.4208861,1238.307755,P18,2023-06-27_14h51.40.061,StroopExp,2022.2.5,60.22180897
b3,stroop_trial_condtions/b1.xlsx,0.583196525,0,congruent,BLUE,blue,d,distractors/silence.wav,,,,,0,2,2,2,0,21,21,44,1240.824078,d,1,0.7973738,,P18,2023-06-27_14h51.40.061,StroopExp,2022.2.5,60.22180897
b3,stroop_trial_condtions/b1.xlsx,0.625212421,0,congruent,GREEN,green,s,distractors/silence.wav,,,,,0,2,2,2,0,22,22,24,1245.338893,s,1,1.4463527,1247.338261,P18,2023-06-27_14h51.40.061,StroopExp,2022.2.5,60.22180897
b3,stroop_trial_condtions/b1.xlsx,0.63243718,0,incongruent,RED,blue,d,distractors/silence.wav,,,,,0,2,2,2,0,23,23,19,1249.854593,d,1,1.4542201,,P18,2023-06-27_14h51.40.061,StroopExp,2022.2.5,60.22180897
b3,stroop_trial_condtions/b1.xlsx,0.01936095,0,incongruent,YELLOW,green,s,distractors/silence.wav,,,,,0,2,2,2,0,24,24,2,1254.369088,s,1,1.3887236,1256.368834,P18,2023-06-27_14h51.40.061,StroopExp,2022.2.5,60.22180897
b3,stroop_trial_condtions/b1.xlsx,0.870893567,0,congruent,RED,red,a,distractors/silence.wav,,,,,0,2,2,2,0,25,25,9,1258.884778,a,1,0.9223303,1260.884918,P18,2023-06-27_14h51.40.061,StroopExp,2022.2.5,60.22180897
b3,stroop_trial_condtions/b1.xlsx,0.004767374,0,incongruent,RED,green,s,distractors/silence.wav,,,,,0,2,2,2,0,26,26,14,1263.36819,s,1,1.3672161,1265.368343,P18,2023-06-27_14h51.40.061,StroopExp,2022.2.5,60.22180897
b3,stroop_trial_condtions/b1.xlsx,0.729684234,0,incongruent,BLUE,red,a,distractors/silence.wav,,,,,0,2,2,2,0,27,27,29,1267.885134,a,1,0.9624541,,P18,2023-06-27_14h51.40.061,StroopExp,2022.2.5,60.22180897
b3,stroop_trial_condtions/b1.xlsx,0.896952266,0,incongruent,YELLOW,blue,d,distractors/silence.wav,,,,,0,2,2,2,0,28,28,25,1272.396197,d,1,1.7006995,1274.395894,P18,2023-06-27_14h51.40.061,StroopExp,2022.2.5,60.22180897
b3,stroop_trial_condtions/b1.xlsx,0.647841101,0,incongruent,GREEN,red,a,distractors/silence.wav,,,,,0,2,2,2,0,29,29,6,1276.911635,a,1,0.9639584,1278.911165,P18,2023-06-27_14h51.40.061,StroopExp,2022.2.5,60.22180897
b3,stroop_trial_condtions/b1.xlsx,0.667196906,0,incongruent,RED,green,s,distractors/silence.wav,,,,,0,2,2,2,0,30,30,36,1281.410275,s,1,1.8510361,1283.410057,P18,2023-06-27_14h51.40.061,StroopExp,2022.2.5,60.22180897
b3,stroop_trial_condtions/b1.xlsx,0.237396997,0,incongruent,GREEN,blue,d,distractors/silence.wav,,,,,0,2,2,2,0,31,31,18,1285.908688,d,1,1.0201505,,P18,2023-06-27_14h51.40.061,StroopExp,2022.2.5,60.22180897
b3,stroop_trial_condtions/b1.xlsx,0.072914577,0,congruent,BLUE,blue,d,distractors/silence.wav,,,,,0,2,2,2,0,32,32,3,1290.42379,d,1,0.6170525,1292.423367,P18,2023-06-27_14h51.40.061,StroopExp,2022.2.5,60.22180897
b3,stroop_trial_condtions/b1.xlsx,0.451597903,0,congruent,BLUE,blue,d,distractors/silence.wav,,,,,0,2,2,2,0,33,33,22,1294.939267,d,1,0.769528,,P18,2023-06-27_14h51.40.061,StroopExp,2022.2.5,60.22180897
b3,stroop_trial_condtions/b1.xlsx,0.401782254,0,incongruent,YELLOW,red,a,distractors/silence.wav,,,,,0,2,2,2,0,34,34,12,1299.453699,a,1,0.6183029,1301.452924,P18,2023-06-27_14h51.40.061,StroopExp,2022.2.5,60.22180897
b3,stroop_trial_condtions/b1.xlsx,0.077117098,0,incongruent,BLUE,red,a,distractors/silence.wav,,,,,0,2,2,2,0,35,35,35,1303.9691,a,1,0.7481441,1305.96896,P18,2023-06-27_14h51.40.061,StroopExp,2022.2.5,60.22180897
b3,stroop_trial_condtions/b1.xlsx,0.870406961,0,congruent,YELLOW,yellow,f,distractors/silence.wav,,,,,0,2,2,2,0,36,36,11,1308.468986,f,1,0.8220443,1310.468618,P18,2023-06-27_14h51.40.061,StroopExp,2022.2.5,60.22180897
b3,stroop_trial_condtions/b1.xlsx,0.976942146,0,congruent,BLUE,blue,d,distractors/silence.wav,,,,,0,2,2,2,0,37,37,13,1312.952282,d,1,1.6106881,1314.95228,P18,2023-06-27_14h51.40.061,StroopExp,2022.2.5,60.22180897
b3,stroop_trial_condtions/b1.xlsx,0.680507855,0,incongruent,GREEN,yellow,f,distractors/silence.wav,,,,,0,2,2,2,0,38,38,33,1317.447459,f,1,1.2160276,1319.446933,P18,2023-06-27_14h51.40.061,StroopExp,2022.2.5,60.22180897
b3,stroop_trial_condtions/b1.xlsx,0.708976038,0,congruent,GREEN,green,s,distractors/silence.wav,,,,,0,2,2,2,0,39,39,8,1321.962769,s,1,0.9562194,1323.962294,P18,2023-06-27_14h51.40.061,StroopExp,2022.2.5,60.22180897
b3,stroop_trial_condtions/b1.xlsx,0.939662107,0,congruent,RED,red,a,distractors/silence.wav,,,,,0,2,2,2,0,40,40,21,1326.461049,a,1,0.8219244,1328.461115,P18,2023-06-27_14h51.40.061,StroopExp,2022.2.5,60.22180897
b3,stroop_trial_condtions/b1.xlsx,0.350328137,0,congruent,GREEN,green,s,distractors/silence.wav,,,,,0,2,2,2,0,41,41,20,1330.976444,s,1,0.866857,1332.975812,P18,2023-06-27_14h51.40.061,StroopExp,2022.2.5,60.22180897
b3,stroop_trial_condtions/b1.xlsx,0.493018261,0,congruent,BLUE,blue,d,distractors/silence.wav,,,,,0,2,2,2,0,42,42,7,1335.47508,d,1,1.1941519,1337.474462,P18,2023-06-27_14h51.40.061,StroopExp,2022.2.5,60.22180897
b3,stroop_trial_condtions/b1.xlsx,0.191332161,0,congruent,GREEN,green,s,distractors/silence.wav,,,,,0,2,2,2,0,43,43,43,1339.973454,s,1,0.9874948,1341.972876,P18,2023-06-27_14h51.40.061,StroopExp,2022.2.5,60.22180897
b3,stroop_trial_condtions/b1.xlsx,0.660435133,0,congruent,GREEN,green,s,distractors/silence.wav,,,,,0,2,2,2,0,44,44,4,1344.472124,s,1,0.6046292,1346.471455,P18,2023-06-27_14h51.40.061,StroopExp,2022.2.5,60.22180897
b3,stroop_trial_condtions/b1.xlsx,0.542994022,0,congruent,YELLOW,yellow,f,distractors/silence.wav,,,,,0,2,2,2,0,45,45,28,1348.970296,f,1,0.7371208,1350.970024,P18,2023-06-27_14h51.40.061,StroopExp,2022.2.5,60.22180897
b3,stroop_trial_condtions/b1.xlsx,0.249190077,0,congruent,YELLOW,yellow,f,distractors/silence.wav,,,,,0,2,2,2,0,46,46,16,1353.469392,f,1,0.6962405,1355.469615,P18,2023-06-27_14h51.40.061,StroopExp,2022.2.5,60.22180897
b3,stroop_trial_condtions/b1.xlsx,0.744564924,0,congruent,GREEN,green,s,distractors/silence.wav,,,,,0,2,2,2,0,47,47,42,1357.952995,s,1,0.6719686,1359.952934,P18,2023-06-27_14h51.40.061,StroopExp,2022.2.5,60.22180897
b4,stroop_trial_condtions/b3.xlsx,0.468515905,1,incongruent,YELLOW,green,s,distractors/1.wav,,,,,0,3,3,3,0,0,0,3,1432.741894,s,1,1.1956239,1434.741494,P18,2023-06-27_14h51.40.061,StroopExp,2022.2.5,60.22180897
b4,stroop_trial_condtions/b3.xlsx,0.629652757,1,incongruent,GREEN,red,a,distractors/4.wav,,,,,0,3,3,3,0,1,1,24,1437.257366,a,1,0.8423404,1439.256509,P18,2023-06-27_14h51.40.061,StroopExp,2022.2.5,60.22180897
b4,stroop_trial_condtions/b3.xlsx,0.304890161,1,incongruent,BLUE,green,s,distractors/1.wav,,,,,0,3,3,3,0,2,2,21,1441.772463,s,1,1.2503339,1443.771626,P18,2023-06-27_14h51.40.061,StroopExp,2022.2.5,60.22180897
b4,stroop_trial_condtions/b3.xlsx,0.229480302,1,congruent,YELLOW,yellow,f,distractors/3.wav,,,,,0,3,3,3,0,3,3,0,1446.287359,f,1,0.7902439,1448.287497,P18,2023-06-27_14h51.40.061,StroopExp,2022.2.5,60.22180897
b4,stroop_trial_condtions/b3.xlsx,0.217828855,1,incongruent,GREEN,blue,d,distractors/1.wav,,,,,0,3,3,3,0,4,4,44,1450.770812,d,1,1.0225769,1452.770845,P18,2023-06-27_14h51.40.061,StroopExp,2022.2.5,60.22180897
b4,stroop_trial_condtions/b3.xlsx,0.749087818,1,congruent,GREEN,green,s,distractors/2.wav,,,,,0,3,3,3,0,5,5,46,1455.254317,s,1,1.1504617,1457.267317,P18,2023-06-27_14h51.40.061,StroopExp,2022.2.5,60.22180897
b4,stroop_trial_condtions/b3.xlsx,0.469997319,1,incongruent,YELLOW,red,a,distractors/2.wav,,,,,0,3,3,3,0,6,6,34,1459.782766,a,1,0.9079231,1461.782721,P18,2023-06-27_14h51.40.061,StroopExp,2022.2.5,60.22180897
b4,stroop_trial_condtions/b3.xlsx,0.56899076,1,congruent,BLUE,blue,d,distractors/3.wav,,,,,0,3,3,3,0,7,7,28,1464.28128,d,1,1.6141432,1466.28108,P18,2023-06-27_14h51.40.061,StroopExp,2022.2.5,60.22180897
b4,stroop_trial_condtions/b3.xlsx,0.457447166,1,congruent,RED,red,a,distractors/1.wav,,,,,0,3,3,3,0,8,8,41,1468.796563,a,1,0.8008834,1470.796077,P18,2023-06-27_14h51.40.061,StroopExp,2022.2.5,60.22180897
b4,stroop_trial_condtions/b3.xlsx,0.600008433,1,congruent,BLUE,blue,d,distractors/3.wav,,,,,0,3,3,3,0,9,9,42,1473.311548,d,1,1.4638112,1475.310906,P18,2023-06-27_14h51.40.061,StroopExp,2022.2.5,60.22180897
b4,stroop_trial_condtions/b3.xlsx,0.22157821,1,incongruent,RED,green,s,distractors/4.wav,,,,,0,3,3,3,0,10,10,26,1477.826219,s,1,1.4757549,1479.826841,P18,2023-06-27_14h51.40.061,StroopExp,2022.2.5,60.22180897
b4,stroop_trial_condtions/b3.xlsx,0.017634479,1,incongruent,RED,blue,d,distractors/3.wav,,,,,0,3,3,3,0,11,11,31,1482.341911,d,1,0.9548071,,P18,2023-06-27_14h51.40.061,StroopExp,2022.2.5,60.22180897
b4,stroop_trial_condtions/b3.xlsx,0.507803195,1,congruent,YELLOW,yellow,f,distractors/3.wav,,,,,0,3,3,3,0,12,12,45,1486.85706,f,1,0.8977821,1488.856436,P18,2023-06-27_14h51.40.061,StroopExp,2022.2.5,60.22180897
b4,stroop_trial_condtions/b3.xlsx,0.253236555,1,congruent,GREEN,green,s,distractors/1.wav,,,,,0,3,3,3,0,13,13,10,1491.372196,s,1,1.1192788,1493.371711,P18,2023-06-27_14h51.40.061,StroopExp,2022.2.5,60.22180897
b4,stroop_trial_condtions/b3.xlsx,0.509195284,1,congruent,RED,red,a,distractors/3.wav,,,,,0,3,3,3,0,14,14,23,1495.888052,a,1,0.6193361,1497.887902,P18,2023-06-27_14h51.40.061,StroopExp,2022.2.5,60.22180897
b4,stroop_trial_condtions/b3.xlsx,0.999512659,1,incongruent,GREEN,yellow,f,distractors/1.wav,,,,,0,3,3,3,0,15,15,39,1500.387913,f,1,1.4387441,1502.388356,P18,2023-06-27_14h51.40.061,StroopExp,2022.2.5,60.22180897
b4,stroop_trial_condtions/b3.xlsx,0.091035715,1,incongruent,BLUE,yellow,f,distractors/3.wav,,,,,0,3,3,3,0,16,16,7,1504.883979,f,1,0.7574648,1506.883362,P18,2023-06-27_14h51.40.061,StroopExp,2022.2.5,60.22180897
b4,stroop_trial_condtions/b3.xlsx,0.741548313,1,congruent,YELLOW,yellow,f,distractors/1.wav,,,,,0,3,3,3,0,17,17,22,1509.382682,f,1,0.576754,1511.382097,P18,2023-06-27_14h51.40.061,StroopExp,2022.2.5,60.22180897
b4,stroop_trial_condtions/b3.xlsx,0.801341495,1,incongruent,BLUE,yellow,f,distractors/4.wav,,,,,0,3,3,3,0,18,18,4,1513.898454,f,1,0.5582025,,P18,2023-06-27_14h51.40.061,StroopExp,2022.2.5,60.22180897
b4,stroop_trial_condtions/b3.xlsx,0.010072896,1,congruent,RED,red,a,distractors/4.wav,,,,,0,3,3,3,0,19,19,37,1518.41293,a,1,0.5237019,1520.412222,P18,2023-06-27_14h51.40.061,StroopExp,2022.2.5,60.22180897
b4,stroop_trial_condtions/b3.xlsx,0.289836119,1,incongruent,GREEN,yellow,f,distractors/2.wav,,,,,0,3,3,3,0,20,20,20,1522.928262,f,1,0.9630401,,P18,2023-06-27_14h51.40.061,StroopExp,2022.2.5,60.22180897
b4,stroop_trial_condtions/b3.xlsx,0.927706406,1,incongruent,BLUE,red,a,distractors/1.wav,,,,,0,3,3,3,0,21,21,32,1527.4432,a,1,1.1101723,1529.44261,P18,2023-06-27_14h51.40.061,StroopExp,2022.2.5,60.22180897
b4,stroop_trial_condtions/b3.xlsx,0.425610132,1,congruent,BLUE,blue,d,distractors/4.wav,,,,,0,3,3,3,0,22,22,9,1531.958235,d,1,0.599948,1533.957679,P18,2023-06-27_14h51.40.061,StroopExp,2022.2.5,60.22180897
b4,stroop_trial_condtions/b3.xlsx,0.585825436,1,incongruent,YELLOW,blue,d,distractors/2.wav,,,,,0,3,3,3,0,23,23,12,1536.457138,d,1,0.6859959,1538.456077,P18,2023-06-27_14h51.40.061,StroopExp,2022.2.5,60.22180897
b4,stroop_trial_condtions/b3.xlsx,0.388628644,1,congruent,RED,red,a,distractors/4.wav,,,,,0,3,3,3,0,24,24,17,1540.955536,a,1,0.722059,1542.955428,P18,2023-06-27_14h51.40.061,StroopExp,2022.2.5,60.22180897
b4,stroop_trial_condtions/b3.xlsx,0.801680892,1,incongruent,YELLOW,red,a,distractors/3.wav,,,,,0,3,3,3,0,25,25,35,1545.455556,a,1,0.8221142,1547.455291,P18,2023-06-27_14h51.40.061,StroopExp,2022.2.5,60.22180897
b4,stroop_trial_condtions/b3.xlsx,0.337871903,1,incongruent,RED,yellow,f,distractors/4.wav,,,,,0,3,3,3,0,26,26,19,1549.938828,f,1,1.0885104,1551.955614,P18,2023-06-27_14h51.40.061,StroopExp,2022.2.5,60.22180897
b4,stroop_trial_condtions/b3.xlsx,0.759150938,1,congruent,YELLOW,yellow,f,distractors/3.wav,,,,,0,3,3,3,0,27,27,36,1554.45072,f,1,0.6665036,1556.449931,P18,2023-06-27_14h51.40.061,StroopExp,2022.2.5,60.22180897
b4,stroop_trial_condtions/b3.xlsx,0.965444972,1,congruent,BLUE,blue,d,distractors/2.wav,,,,,0,3,3,3,0,28,28,2,1558.965818,d,1,0.8272763,1560.966084,P18,2023-06-27_14h51.40.061,StroopExp,2022.2.5,60.22180897
b4,stroop_trial_condtions/b3.xlsx,0.504266909,1,congruent,BLUE,blue,d,distractors/2.wav,,,,,0,3,3,3,0,29,29,25,1563.464365,d,1,0.5769019,1565.46397,P18,2023-06-27_14h51.40.061,StroopExp,2022.2.5,60.22180897
b4,stroop_trial_condtions/b3.xlsx,0.422027805,1,incongruent,YELLOW,green,s,distractors/2.wav,,,,,0,3,3,3,0,30,30,33,1567.962856,s,1,1.0464434,1569.9624,P18,2023-06-27_14h51.40.061,StroopExp,2022.2.5,60.22180897
b4,stroop_trial_condtions/b3.xlsx,0.10397583,1,incongruent,BLUE,green,s,distractors/1.wav,,,,,0,3,3,3,0,31,31,47,1572.461575,s,1,0.7337233,1574.460815,P18,2023-06-27_14h51.40.061,StroopExp,2022.2.5,60.22180897
b4,stroop_trial_condtions/b3.xlsx,0.521565887,1,incongruent,YELLOW,blue,d,distractors/3.wav,,,,,0,3,3,3,0,32,32,14,1576.959665,d,1,1.5518081,1578.958721,P18,2023-06-27_14h51.40.061,StroopExp,2022.2.5,60.22180897
b4,stroop_trial_condtions/b3.xlsx,0.214405789,1,incongruent,GREEN,red,a,distractors/4.wav,,,,,0,3,3,3,0,33,33,29,1581.458243,a,1,0.8273535,1583.45731,P18,2023-06-27_14h51.40.061,StroopExp,2022.2.5,60.22180897
b4,stroop_trial_condtions/b3.xlsx,0.854349554,1,congruent,YELLOW,yellow,f,distractors/3.wav,,,,,0,3,3,3,0,34,34,27,1585.973366,f,1,0.9260376,1587.972607,P18,2023-06-27_14h51.40.061,StroopExp,2022.2.5,60.22180897
b4,stroop_trial_condtions/b3.xlsx,0.488087669,1,congruent,RED,red,a,distractors/4.wav,,,,,0,3,3,3,0,35,35,38,1590.472631,a,1,0.8445718,1592.472693,P18,2023-06-27_14h51.40.061,StroopExp,2022.2.5,60.22180897
b4,stroop_trial_condtions/b3.xlsx,0.055781084,1,incongruent,RED,yellow,f,distractors/4.wav,,,,,0,3,3,3,0,36,36,43,1594.95627,f,1,1.4170689,1596.955852,P18,2023-06-27_14h51.40.061,StroopExp,2022.2.5,60.22180897
b4,stroop_trial_condtions/b3.xlsx,0.490953462,1,congruent,GREEN,green,s,distractors/4.wav,,,,,0,3,3,3,0,37,37,1,1599.469209,None,0,,,P18,2023-06-27_14h51.40.061,StroopExp,2022.2.5,60.22180897
b4,stroop_trial_condtions/b3.xlsx,0.512136417,1,congruent,BLUE,blue,d,distractors/3.wav,,,,,0,3,3,3,0,38,38,40,1603.983354,d,1,0.7298849,1605.983048,P18,2023-06-27_14h51.40.061,StroopExp,2022.2.5,60.22180897
b4,stroop_trial_condtions/b3.xlsx,0.139842966,1,congruent,GREEN,green,s,distractors/2.wav,,,,,0,3,3,3,0,39,39,8,1608.499012,s,1,1.0423404,1610.498193,P18,2023-06-27_14h51.40.061,StroopExp,2022.2.5,60.22180897
b4,stroop_trial_condtions/b3.xlsx,0.264144016,1,congruent,RED,red,a,distractors/2.wav,,,,,0,3,3,3,0,40,40,6,1612.997311,a,1,0.911979,1614.997886,P18,2023-06-27_14h51.40.061,StroopExp,2022.2.5,60.22180897
b4,stroop_trial_condtions/b3.xlsx,0.801010583,1,incongruent,RED,blue,d,distractors/2.wav,,,,,0,3,3,3,0,41,41,13,1617.49654,d,1,1.2289557,,P18,2023-06-27_14h51.40.061,StroopExp,2022.2.5,60.22180897
b4,stroop_trial_condtions/b3.xlsx,0.6103536,1,incongruent,RED,green,s,distractors/2.wav,,,,,0,3,3,3,0,42,42,16,1622.011195,s,1,0.6477151,1624.010082,P18,2023-06-27_14h51.40.061,StroopExp,2022.2.5,60.22180897
b4,stroop_trial_condtions/b3.xlsx,0.794314825,1,incongruent,BLUE,red,a,distractors/1.wav,,,,,0,3,3,3,0,43,43,30,1626.525985,a,1,0.6930333,1628.52567,P18,2023-06-27_14h51.40.061,StroopExp,2022.2.5,60.22180897
b4,stroop_trial_condtions/b3.xlsx,0.552411576,1,incongruent,GREEN,blue,d,distractors/4.wav,,,,,0,3,3,3,0,44,44,15,1631.025274,d,1,0.9735115,,P18,2023-06-27_14h51.40.061,StroopExp,2022.2.5,60.22180897
b4,stroop_trial_condtions/b3.xlsx,0.585762683,1,congruent,GREEN,green,s,distractors/2.wav,,,,,0,3,3,3,0,45,45,18,1635.539774,s,1,0.7273986,1637.540013,P18,2023-06-27_14h51.40.061,StroopExp,2022.2.5,60.22180897
b4,stroop_trial_condtions/b3.xlsx,0.871165656,1,congruent,YELLOW,yellow,f,distractors/1.wav,,,,,0,3,3,3,0,46,46,11,1640.04013,f,1,1.1505612,1642.040753,P18,2023-06-27_14h51.40.061,StroopExp,2022.2.5,60.22180897
b4,stroop_trial_condtions/b3.xlsx,0.677170745,1,congruent,GREEN,green,s,distractors/1.wav,,,,,0,3,3,3,0,47,47,5,1644.523354,s,1,0.7697493,1646.536683,P18,2023-06-27_14h51.40.061,StroopExp,2022.2.5,60.22180897
