block_number,location,Index,has_distraction,trial_type,word,color,correct_key,distraction_file_name,practice_trials_4X5.thisRepN,practice_trials_4X5.thisTrialN,practice_trials_4X5.thisN,practice_trials_4X5.thisIndex,Type,direction,blocks.thisRepN,blocks.thisTrialN,blocks.thisN,blocks.thisIndex,trials.thisRepN,trials.thisTrialN,trials.thisN,trials.thisIndex,key_stroop.started,key_stroop.stopped,key_stroop.keys,key_stroop.corr,key_stroop.rt,participant,date,expName,psychopyVersion,frameRate
b1,stroop_trial_condtions/b1.xlsx,0.729684234,0,incongruent,BLUE,red,a,distractors/silence.wav,,,,,,,0,0,0,0,0,0,0,29,178.8685631,180.8709467,a,1,1.4210273,P14,2023-06-26_14h45.34.724,StroopExp,2022.2.5,60.08344389
b1,stroop_trial_condtions/b1.xlsx,0.493018261,0,congruent,BLUE,blue,d,distractors/silence.wav,,,,,,,0,0,0,0,0,1,1,7,183.3675496,185.3714177,d,1,0.9864341,P14,2023-06-26_14h45.34.724,StroopExp,2022.2.5,60.08344389
b1,stroop_trial_condtions/b1.xlsx,0.199393364,0,congruent,YELLOW,yellow,f,distractors/silence.wav,,,,,,,0,0,0,0,0,2,2,23,187.8514489,189.8510674,f,1,1.0220132,P14,2023-06-26_14h45.34.724,StroopExp,2022.2.5,60.08344389
b1,stroop_trial_condtions/b1.xlsx,0.8328021,0,incongruent,GREEN,red,a,distractors/silence.wav,,,,,,,0,0,0,0,0,3,3,41,192.3464239,194.3461286,a,1,0.9090274,P14,2023-06-26_14h45.34.724,StroopExp,2022.2.5,60.08344389
b1,stroop_trial_condtions/b1.xlsx,0.072914577,0,congruent,BLUE,blue,d,distractors/silence.wav,,,,,,,0,0,0,0,0,4,4,3,196.8614514,198.8613107,d,1,1.4883563,P14,2023-06-26_14h45.34.724,StroopExp,2022.2.5,60.08344389
b1,stroop_trial_condtions/b1.xlsx,0.896952266,0,incongruent,YELLOW,blue,d,distractors/silence.wav,,,,,,,0,0,0,0,0,5,5,25,201.3764028,203.3759276,d,1,1.2839458,P14,2023-06-26_14h45.34.724,StroopExp,2022.2.5,60.08344389
b1,stroop_trial_condtions/b1.xlsx,0.004767374,0,incongruent,RED,green,s,distractors/silence.wav,,,,,,,0,0,0,0,0,6,6,14,205.8917759,207.8912664,None,0,,P14,2023-06-26_14h45.34.724,StroopExp,2022.2.5,60.08344389
b1,stroop_trial_condtions/b1.xlsx,0.625212421,0,congruent,GREEN,green,s,distractors/silence.wav,,,,,,,0,0,0,0,0,7,7,24,210.3931003,,s,1,0.8546345,P14,2023-06-26_14h45.34.724,StroopExp,2022.2.5,60.08344389
b1,stroop_trial_condtions/b1.xlsx,0.249190077,0,congruent,YELLOW,yellow,f,distractors/silence.wav,,,,,,,0,0,0,0,0,8,8,16,214.9058656,216.9047439,None,0,,P14,2023-06-26_14h45.34.724,StroopExp,2022.2.5,60.08344389
b1,stroop_trial_condtions/b1.xlsx,0.744564924,0,congruent,GREEN,green,s,distractors/silence.wav,,,,,,,0,0,0,0,0,9,9,42,219.4043595,221.4032886,s,1,1.1450696,P14,2023-06-26_14h45.34.724,StroopExp,2022.2.5,60.08344389
b1,stroop_trial_condtions/b1.xlsx,0.451597903,0,congruent,BLUE,blue,d,distractors/silence.wav,,,,,,,0,0,0,0,0,10,10,22,223.9027178,225.9021296,d,1,1.8970114,P14,2023-06-26_14h45.34.724,StroopExp,2022.2.5,60.08344389
b1,stroop_trial_condtions/b1.xlsx,0.251874896,0,incongruent,GREEN,blue,d,distractors/silence.wav,,,,,,,0,0,0,0,0,11,11,37,228.4184599,230.4182417,d,1,0.9068611,P14,2023-06-26_14h45.34.724,StroopExp,2022.2.5,60.08344389
b1,stroop_trial_condtions/b1.xlsx,0.660435133,0,congruent,GREEN,green,s,distractors/silence.wav,,,,,,,0,0,0,0,0,12,12,4,232.9016906,234.9015811,s,1,1.0776867,P14,2023-06-26_14h45.34.724,StroopExp,2022.2.5,60.08344389
b1,stroop_trial_condtions/b1.xlsx,0.674408476,0,incongruent,BLUE,yellow,f,distractors/silence.wav,,,,,,,0,0,0,0,0,13,13,26,237.4020156,,f,1,1.4599504,P14,2023-06-26_14h45.34.724,StroopExp,2022.2.5,60.08344389
b1,stroop_trial_condtions/b1.xlsx,0.01936095,0,incongruent,YELLOW,green,s,distractors/silence.wav,,,,,,,0,0,0,0,0,14,14,2,241.9137902,243.9126286,s,1,1.4815675,P14,2023-06-26_14h45.34.724,StroopExp,2022.2.5,60.08344389
b1,stroop_trial_condtions/b1.xlsx,0.870893567,0,congruent,RED,red,a,distractors/silence.wav,,,,,,,0,0,0,0,0,15,15,9,246.4118722,248.4109637,a,1,0.6258,P14,2023-06-26_14h45.34.724,StroopExp,2022.2.5,60.08344389
b1,stroop_trial_condtions/b1.xlsx,0.733681542,0,incongruent,BLUE,green,s,distractors/silence.wav,,,,,,,0,0,0,0,0,16,16,15,250.9437278,252.9427707,s,1,1.8042793,P14,2023-06-26_14h45.34.724,StroopExp,2022.2.5,60.08344389
b1,stroop_trial_condtions/b1.xlsx,0.191332161,0,congruent,GREEN,green,s,distractors/silence.wav,,,,,,,0,0,0,0,0,17,17,43,255.4420904,257.44124,s,1,0.9312493,P14,2023-06-26_14h45.34.724,StroopExp,2022.2.5,60.08344389
b1,stroop_trial_condtions/b1.xlsx,0.922953448,0,congruent,RED,red,a,distractors/silence.wav,,,,,,,0,0,0,0,0,18,18,40,259.9571742,261.9564948,a,1,0.7300863,P14,2023-06-26_14h45.34.724,StroopExp,2022.2.5,60.08344389
b1,stroop_trial_condtions/b1.xlsx,0.830948331,0,incongruent,BLUE,green,s,distractors/silence.wav,,,,,,,0,0,0,0,0,19,19,46,264.4618739,266.4716645,s,1,1.5513202,P14,2023-06-26_14h45.34.724,StroopExp,2022.2.5,60.08344389
b1,stroop_trial_condtions/b1.xlsx,0.971858016,0,congruent,RED,red,a,distractors/silence.wav,,,,,,,0,0,0,0,0,20,20,0,268.9542668,270.9547503,a,1,1.0495173,P14,2023-06-26_14h45.34.724,StroopExp,2022.2.5,60.08344389
b1,stroop_trial_condtions/b1.xlsx,0.401782254,0,incongruent,YELLOW,red,a,distractors/silence.wav,,,,,,,0,0,0,0,0,21,21,12,273.4696661,275.4688961,a,1,1.3503133,P14,2023-06-26_14h45.34.724,StroopExp,2022.2.5,60.08344389
b1,stroop_trial_condtions/b1.xlsx,0.935097843,0,incongruent,RED,blue,d,distractors/silence.wav,,,,,,,0,0,0,0,0,22,22,17,277.9692712,279.969347,d,1,1.1086957,P14,2023-06-26_14h45.34.724,StroopExp,2022.2.5,60.08344389
b1,stroop_trial_condtions/b1.xlsx,0.419315371,0,congruent,RED,red,a,distractors/silence.wav,,,,,,,0,0,0,0,0,23,23,38,282.4525384,284.4691702,a,1,0.8216628,P14,2023-06-26_14h45.34.724,StroopExp,2022.2.5,60.08344389
b1,stroop_trial_condtions/b1.xlsx,0.976569181,0,incongruent,YELLOW,blue,d,distractors/silence.wav,,,,,,,0,0,0,0,0,24,24,39,286.9643595,288.9642892,d,1,0.7072774,P14,2023-06-26_14h45.34.724,StroopExp,2022.2.5,60.08344389
b1,stroop_trial_condtions/b1.xlsx,0.256932032,0,congruent,BLUE,blue,d,distractors/silence.wav,,,,,,,0,0,0,0,0,25,25,30,291.4805753,,d,1,0.7517085,P14,2023-06-26_14h45.34.724,StroopExp,2022.2.5,60.08344389
b1,stroop_trial_condtions/b1.xlsx,0.708976038,0,congruent,GREEN,green,s,distractors/silence.wav,,,,,,,0,0,0,0,0,26,26,8,295.9950332,297.9945094,s,1,1.3347622,P14,2023-06-26_14h45.34.724,StroopExp,2022.2.5,60.08344389
b1,stroop_trial_condtions/b1.xlsx,0.571650714,0,incongruent,YELLOW,red,a,distractors/silence.wav,,,,,,,0,0,0,0,0,27,27,5,300.5103005,,a,1,1.0114346,P14,2023-06-26_14h45.34.724,StroopExp,2022.2.5,60.08344389
b1,stroop_trial_condtions/b1.xlsx,0.647841101,0,incongruent,GREEN,red,a,distractors/silence.wav,,,,,,,0,0,0,0,0,28,28,6,305.0256509,307.0249565,a,1,0.9243969,P14,2023-06-26_14h45.34.724,StroopExp,2022.2.5,60.08344389
b1,stroop_trial_condtions/b1.xlsx,0.936669537,0,incongruent,GREEN,yellow,f,distractors/silence.wav,,,,,,,0,0,0,0,0,29,29,34,309.5238749,311.5233309,f,1,0.9667046,P14,2023-06-26_14h45.34.724,StroopExp,2022.2.5,60.08344389
b1,stroop_trial_condtions/b1.xlsx,0.870406961,0,congruent,YELLOW,yellow,f,distractors/silence.wav,,,,,,,0,0,0,0,0,30,30,11,314.0392776,316.038384,f,1,0.89314,P14,2023-06-26_14h45.34.724,StroopExp,2022.2.5,60.08344389
b1,stroop_trial_condtions/b1.xlsx,0.542994022,0,congruent,YELLOW,yellow,f,distractors/silence.wav,,,,,,,0,0,0,0,0,31,31,28,318.5541695,320.5535508,f,1,0.8374596,P14,2023-06-26_14h45.34.724,StroopExp,2022.2.5,60.08344389
b1,stroop_trial_condtions/b1.xlsx,0.68696849,0,congruent,YELLOW,yellow,f,distractors/silence.wav,,,,,,,0,0,0,0,0,32,32,45,323.0527988,325.0533422,f,1,0.760895,P14,2023-06-26_14h45.34.724,StroopExp,2022.2.5,60.08344389
b1,stroop_trial_condtions/b1.xlsx,0.077117098,0,incongruent,BLUE,red,a,distractors/silence.wav,,,,,,,0,0,0,0,0,33,33,35,327.5366526,329.5367081,a,1,0.8670481,P14,2023-06-26_14h45.34.724,StroopExp,2022.2.5,60.08344389
b1,stroop_trial_condtions/b1.xlsx,0.583196525,0,congruent,BLUE,blue,d,distractors/silence.wav,,,,,,,0,0,0,0,0,34,34,44,332.0200471,334.0322119,s,0,1.0492234,P14,2023-06-26_14h45.34.724,StroopExp,2022.2.5,60.08344389
b1,stroop_trial_condtions/b1.xlsx,0.667196906,0,incongruent,RED,green,s,distractors/silence.wav,,,,,,,0,0,0,0,0,35,35,36,336.5318769,,s,1,1.4198891,P14,2023-06-26_14h45.34.724,StroopExp,2022.2.5,60.08344389
b1,stroop_trial_condtions/b1.xlsx,0.548087945,0,congruent,YELLOW,yellow,f,distractors/silence.wav,,,,,,,0,0,0,0,0,36,36,32,341.0466947,,f,1,0.779269,P14,2023-06-26_14h45.34.724,StroopExp,2022.2.5,60.08344389
b1,stroop_trial_condtions/b1.xlsx,0.983636333,0,incongruent,RED,yellow,f,distractors/silence.wav,,,,,,,0,0,0,0,0,37,37,10,345.5618273,347.560988,f,1,0.9342384,P14,2023-06-26_14h45.34.724,StroopExp,2022.2.5,60.08344389
b1,stroop_trial_condtions/b1.xlsx,0.237396997,0,incongruent,GREEN,blue,d,distractors/silence.wav,,,,,,,0,0,0,0,0,38,38,18,350.060284,352.0590362,d,1,1.14336,P14,2023-06-26_14h45.34.724,StroopExp,2022.2.5,60.08344389
b1,stroop_trial_condtions/b1.xlsx,0.939662107,0,congruent,RED,red,a,distractors/silence.wav,,,,,,,0,0,0,0,0,39,39,21,354.5588362,356.5581037,a,1,0.8810033,P14,2023-06-26_14h45.34.724,StroopExp,2022.2.5,60.08344389
b1,stroop_trial_condtions/b1.xlsx,0.027168618,0,incongruent,RED,yellow,f,distractors/silence.wav,,,,,,,0,0,0,0,0,40,40,27,359.0736996,361.0738717,f,1,0.9562904,P14,2023-06-26_14h45.34.724,StroopExp,2022.2.5,60.08344389
b1,stroop_trial_condtions/b1.xlsx,0.543070637,0,incongruent,BLUE,yellow,f,distractors/silence.wav,,,,,,,0,0,0,0,0,41,41,1,363.5892792,365.5883825,f,1,0.9386029,P14,2023-06-26_14h45.34.724,StroopExp,2022.2.5,60.08344389
b1,stroop_trial_condtions/b1.xlsx,0.976942146,0,congruent,BLUE,blue,d,distractors/silence.wav,,,,,,,0,0,0,0,0,42,42,13,368.104213,370.1036421,d,1,0.9693383,P14,2023-06-26_14h45.34.724,StroopExp,2022.2.5,60.08344389
b1,stroop_trial_condtions/b1.xlsx,0.63243718,0,incongruent,RED,blue,d,distractors/silence.wav,,,,,,,0,0,0,0,0,43,43,19,372.6039489,374.6041934,d,1,0.977795,P14,2023-06-26_14h45.34.724,StroopExp,2022.2.5,60.08344389
b1,stroop_trial_condtions/b1.xlsx,0.680507855,0,incongruent,GREEN,yellow,f,distractors/silence.wav,,,,,,,0,0,0,0,0,44,44,33,377.0875823,379.0875335,f,1,1.0085298,P14,2023-06-26_14h45.34.724,StroopExp,2022.2.5,60.08344389
b1,stroop_trial_condtions/b1.xlsx,0.350328137,0,congruent,GREEN,green,s,distractors/silence.wav,,,,,,,0,0,0,0,0,45,45,20,381.5829764,383.5825141,s,1,0.9772077,P14,2023-06-26_14h45.34.724,StroopExp,2022.2.5,60.08344389
b1,stroop_trial_condtions/b1.xlsx,0.153196184,0,incongruent,YELLOW,green,s,distractors/silence.wav,,,,,,,0,0,0,0,0,46,46,31,386.0979966,388.097538,s,1,0.8100915,P14,2023-06-26_14h45.34.724,StroopExp,2022.2.5,60.08344389
b1,stroop_trial_condtions/b1.xlsx,0.579491601,0,congruent,RED,red,a,distractors/silence.wav,,,,,,,0,0,0,0,0,47,47,47,390.6131878,392.6126657,a,1,0.8580801,P14,2023-06-26_14h45.34.724,StroopExp,2022.2.5,60.08344389
b2,stroop_trial_condtions/b2.xlsx,0.488971465,1,incongruent,BLUE,red,a,distractors/4.wav,,,,,,,0,1,1,1,0,0,0,29,462.6556386,464.6551529,a,1,0.9992643,P14,2023-06-26_14h45.34.724,StroopExp,2022.2.5,60.08344389
b2,stroop_trial_condtions/b2.xlsx,0.04164908,1,incongruent,RED,yellow,f,distractors/4.wav,,,,,,,0,1,1,1,0,1,1,2,467.1386946,469.1605654,f,1,0.8834105,P14,2023-06-26_14h45.34.724,StroopExp,2022.2.5,60.08344389
b2,stroop_trial_condtions/b2.xlsx,0.107154682,1,incongruent,BLUE,green,s,distractors/3.wav,,,,,,,0,1,1,1,0,2,2,33,471.6220874,473.6221942,s,1,1.1213115,P14,2023-06-26_14h45.34.724,StroopExp,2022.2.5,60.08344389
b2,stroop_trial_condtions/b2.xlsx,0.973471425,1,congruent,BLUE,blue,d,distractors/2.wav,,,,,,,0,1,1,1,0,3,3,1,476.1343701,478.1338145,d,1,0.7193698,P14,2023-06-26_14h45.34.724,StroopExp,2022.2.5,60.08344389
b2,stroop_trial_condtions/b2.xlsx,0.483274464,1,congruent,YELLOW,yellow,f,distractors/1.wav,,,,,,,0,1,1,1,0,4,4,24,480.6497883,,f,1,0.6276432,P14,2023-06-26_14h45.34.724,StroopExp,2022.2.5,60.08344389
b2,stroop_trial_condtions/b2.xlsx,0.813514666,1,incongruent,GREEN,red,a,distractors/3.wav,,,,,,,0,1,1,1,0,5,5,40,485.1644804,487.1642009,a,1,0.8689276,P14,2023-06-26_14h45.34.724,StroopExp,2022.2.5,60.08344389
b2,stroop_trial_condtions/b2.xlsx,0.838430071,1,congruent,RED,red,a,distractors/1.wav,,,,,,,0,1,1,1,0,6,6,25,489.6633286,491.6625414,a,1,0.8882213,P14,2023-06-26_14h45.34.724,StroopExp,2022.2.5,60.08344389
b2,stroop_trial_condtions/b2.xlsx,0.966821302,1,congruent,BLUE,blue,d,distractors/2.wav,,,,,,,0,1,1,1,0,7,7,21,494.1617978,496.1608312,d,1,0.8698421,P14,2023-06-26_14h45.34.724,StroopExp,2022.2.5,60.08344389
b2,stroop_trial_condtions/b2.xlsx,0.196366522,1,incongruent,GREEN,red,a,distractors/1.wav,,,,,,,0,1,1,1,0,8,8,9,498.6602045,500.659547,a,1,0.8504083,P14,2023-06-26_14h45.34.724,StroopExp,2022.2.5,60.08344389
b2,stroop_trial_condtions/b2.xlsx,0.796267692,1,incongruent,RED,blue,d,distractors/4.wav,,,,,,,0,1,1,1,0,9,9,46,503.1596529,,d,1,1.33604,P14,2023-06-26_14h45.34.724,StroopExp,2022.2.5,60.08344389
b2,stroop_trial_condtions/b2.xlsx,0.531759185,1,congruent,YELLOW,yellow,f,distractors/2.wav,,,,,,,0,1,1,1,0,10,10,34,507.6742642,,f,1,0.7333663,P14,2023-06-26_14h45.34.724,StroopExp,2022.2.5,60.08344389
b2,stroop_trial_condtions/b2.xlsx,0.034332485,1,incongruent,YELLOW,red,a,distractors/2.wav,,,,,,,0,1,1,1,0,11,11,13,512.1892027,514.1889533,a,1,0.5764535,P14,2023-06-26_14h45.34.724,StroopExp,2022.2.5,60.08344389
b2,stroop_trial_condtions/b2.xlsx,0.067305336,1,incongruent,BLUE,yellow,f,distractors/3.wav,,,,,,,0,1,1,1,0,12,12,26,516.6727582,518.672733,f,1,1.2677679,P14,2023-06-26_14h45.34.724,StroopExp,2022.2.5,60.08344389
b2,stroop_trial_condtions/b2.xlsx,0.25539718,1,congruent,YELLOW,yellow,f,distractors/1.wav,,,,,,,0,1,1,1,0,13,13,45,521.1695165,,f,1,0.8142216,P14,2023-06-26_14h45.34.724,StroopExp,2022.2.5,60.08344389
b2,stroop_trial_condtions/b2.xlsx,0.108398141,1,incongruent,RED,green,s,distractors/1.wav,,,,,,,0,1,1,1,0,14,14,14,525.6840691,527.6834223,s,1,1.1734321,P14,2023-06-26_14h45.34.724,StroopExp,2022.2.5,60.08344389
b2,stroop_trial_condtions/b2.xlsx,0.087696882,1,incongruent,RED,green,s,distractors/3.wav,,,,,,,0,1,1,1,0,15,15,47,530.1991325,532.198737,s,1,1.2999187,P14,2023-06-26_14h45.34.724,StroopExp,2022.2.5,60.08344389
b2,stroop_trial_condtions/b2.xlsx,0.329333187,1,incongruent,YELLOW,green,s,distractors/2.wav,,,,,,,0,1,1,1,0,16,16,6,534.7145265,536.7135079,s,1,0.8437374,P14,2023-06-26_14h45.34.724,StroopExp,2022.2.5,60.08344389
b2,stroop_trial_condtions/b2.xlsx,0.776926078,1,incongruent,GREEN,blue,d,distractors/4.wav,,,,,,,0,1,1,1,0,17,17,22,539.2131138,,d,1,1.2663012,P14,2023-06-26_14h45.34.724,StroopExp,2022.2.5,60.08344389
b2,stroop_trial_condtions/b2.xlsx,0.065023824,1,incongruent,GREEN,yellow,f,distractors/1.wav,,,,,,,0,1,1,1,0,18,18,7,543.7114245,545.7107518,f,1,1.3845079,P14,2023-06-26_14h45.34.724,StroopExp,2022.2.5,60.08344389
b2,stroop_trial_condtions/b2.xlsx,0.828978616,1,incongruent,RED,yellow,f,distractors/4.wav,,,,,,,0,1,1,1,0,19,19,31,548.2103185,550.2093424,f,1,1.0925044,P14,2023-06-26_14h45.34.724,StroopExp,2022.2.5,60.08344389
b2,stroop_trial_condtions/b2.xlsx,0.231567411,1,congruent,GREEN,green,s,distractors/4.wav,,,,,,,0,1,1,1,0,20,20,8,552.7252533,554.7283615,s,1,1.3929529,P14,2023-06-26_14h45.34.724,StroopExp,2022.2.5,60.08344389
b2,stroop_trial_condtions/b2.xlsx,0.900567422,1,congruent,BLUE,blue,d,distractors/2.wav,,,,,,,0,1,1,1,0,21,21,30,557.2239629,559.2271042,d,1,0.970153,P14,2023-06-26_14h45.34.724,StroopExp,2022.2.5,60.08344389
b2,stroop_trial_condtions/b2.xlsx,0.090889572,1,congruent,RED,red,a,distractors/3.wav,,,,,,,0,1,1,1,0,22,22,41,561.7065294,563.7065288,a,1,0.7052738,P14,2023-06-26_14h45.34.724,StroopExp,2022.2.5,60.08344389
b2,stroop_trial_condtions/b2.xlsx,0.211743172,1,congruent,YELLOW,yellow,f,distractors/2.wav,,,,,,,0,1,1,1,0,23,23,38,566.2068274,568.2238104,f,1,1.0046782,P14,2023-06-26_14h45.34.724,StroopExp,2022.2.5,60.08344389
b2,stroop_trial_condtions/b2.xlsx,0.42490795,1,congruent,GREEN,green,s,distractors/2.wav,,,,,,,0,1,1,1,0,24,24,4,570.7190003,572.7181705,s,1,0.6086806,P14,2023-06-26_14h45.34.724,StroopExp,2022.2.5,60.08344389
b2,stroop_trial_condtions/b2.xlsx,0.500798324,1,incongruent,BLUE,green,s,distractors/1.wav,,,,,,,0,1,1,1,0,25,25,18,575.2345135,577.2339431,s,1,1.1472956,P14,2023-06-26_14h45.34.724,StroopExp,2022.2.5,60.08344389
b2,stroop_trial_condtions/b2.xlsx,0.361479091,1,congruent,GREEN,green,s,distractors/1.wav,,,,,,,0,1,1,1,0,26,26,17,579.7327811,581.7318754,s,1,0.7093375,P14,2023-06-26_14h45.34.724,StroopExp,2022.2.5,60.08344389
b2,stroop_trial_condtions/b2.xlsx,0.733185206,1,incongruent,GREEN,blue,d,distractors/4.wav,,,,,,,0,1,1,1,0,27,27,28,584.2311279,586.2308135,d,1,1.2445227,P14,2023-06-26_14h45.34.724,StroopExp,2022.2.5,60.08344389
b2,stroop_trial_condtions/b2.xlsx,0.155643688,1,incongruent,YELLOW,blue,d,distractors/3.wav,,,,,,,0,1,1,1,0,28,28,39,588.7462766,590.7458985,d,1,0.8006795,P14,2023-06-26_14h45.34.724,StroopExp,2022.2.5,60.08344389
b2,stroop_trial_condtions/b2.xlsx,0.492685632,1,congruent,RED,red,a,distractors/4.wav,,,,,,,0,1,1,1,0,29,29,27,593.2455761,,a,1,0.8653555,P14,2023-06-26_14h45.34.724,StroopExp,2022.2.5,60.08344389
b2,stroop_trial_condtions/b2.xlsx,0.324070625,1,congruent,YELLOW,yellow,f,distractors/3.wav,,,,,,,0,1,1,1,0,30,30,15,597.7600218,599.7593886,f,1,1.1215514,P14,2023-06-26_14h45.34.724,StroopExp,2022.2.5,60.08344389
b2,stroop_trial_condtions/b2.xlsx,0.814062715,1,congruent,BLUE,blue,d,distractors/2.wav,,,,,,,0,1,1,1,0,31,31,36,602.2751342,604.2747593,d,1,0.7531188,P14,2023-06-26_14h45.34.724,StroopExp,2022.2.5,60.08344389
b2,stroop_trial_condtions/b2.xlsx,0.566650633,1,incongruent,GREEN,yellow,f,distractors/3.wav,,,,,,,0,1,1,1,0,32,32,0,606.7573058,608.7578612,f,1,0.8875236,P14,2023-06-26_14h45.34.724,StroopExp,2022.2.5,60.08344389
b2,stroop_trial_condtions/b2.xlsx,0.340063562,1,congruent,YELLOW,yellow,f,distractors/3.wav,,,,,,,0,1,1,1,0,33,33,12,611.2575885,613.257823,f,1,0.7179574,P14,2023-06-26_14h45.34.724,StroopExp,2022.2.5,60.08344389
b2,stroop_trial_condtions/b2.xlsx,0.767680624,1,congruent,BLUE,blue,d,distractors/3.wav,,,,,,,0,1,1,1,0,34,34,32,615.7540354,617.7696089,d,1,1.0184043,P14,2023-06-26_14h45.34.724,StroopExp,2022.2.5,60.08344389
b2,stroop_trial_condtions/b2.xlsx,0.522476173,1,incongruent,RED,blue,d,distractors/1.wav,,,,,,,0,1,1,1,0,35,35,20,620.2687252,622.2681373,d,1,1.0968327,P14,2023-06-26_14h45.34.724,StroopExp,2022.2.5,60.08344389
b2,stroop_trial_condtions/b2.xlsx,0.144418396,1,congruent,GREEN,green,s,distractors/1.wav,,,,,,,0,1,1,1,0,36,36,43,624.7840311,626.7835243,s,1,0.8796834,P14,2023-06-26_14h45.34.724,StroopExp,2022.2.5,60.08344389
b2,stroop_trial_condtions/b2.xlsx,0.666141953,1,congruent,RED,red,a,distractors/2.wav,,,,,,,0,1,1,1,0,37,37,3,629.2993593,631.2988603,a,1,0.7926288,P14,2023-06-26_14h45.34.724,StroopExp,2022.2.5,60.08344389
b2,stroop_trial_condtions/b2.xlsx,0.88570862,1,congruent,BLUE,blue,d,distractors/1.wav,,,,,,,0,1,1,1,0,38,38,16,633.79783,,d,1,1.1925383,P14,2023-06-26_14h45.34.724,StroopExp,2022.2.5,60.08344389
b2,stroop_trial_condtions/b2.xlsx,0.713195007,1,congruent,GREEN,green,s,distractors/2.wav,,,,,,,0,1,1,1,0,39,39,10,638.3132493,640.3129899,s,1,1.1042985,P14,2023-06-26_14h45.34.724,StroopExp,2022.2.5,60.08344389
b2,stroop_trial_condtions/b2.xlsx,0.50307865,1,incongruent,YELLOW,green,s,distractors/4.wav,,,,,,,0,1,1,1,0,40,40,19,642.8115848,644.8106115,s,1,0.8584565,P14,2023-06-26_14h45.34.724,StroopExp,2022.2.5,60.08344389
b2,stroop_trial_condtions/b2.xlsx,0.629589964,1,congruent,RED,red,a,distractors/2.wav,,,,,,,0,1,1,1,0,41,41,11,647.3268361,649.3261814,a,1,0.7709939,P14,2023-06-26_14h45.34.724,StroopExp,2022.2.5,60.08344389
b2,stroop_trial_condtions/b2.xlsx,0.330833954,1,incongruent,BLUE,yellow,f,distractors/4.wav,,,,,,,0,1,1,1,0,42,42,5,651.8251811,653.8246509,f,1,0.9548967,P14,2023-06-26_14h45.34.724,StroopExp,2022.2.5,60.08344389
b2,stroop_trial_condtions/b2.xlsx,0.295023129,1,incongruent,BLUE,red,a,distractors/1.wav,,,,,,,0,1,1,1,0,43,43,37,656.3083054,658.3083495,a,1,0.9237533,P14,2023-06-26_14h45.34.724,StroopExp,2022.2.5,60.08344389
b2,stroop_trial_condtions/b2.xlsx,0.164948028,1,congruent,GREEN,green,s,distractors/4.wav,,,,,,,0,1,1,1,0,44,44,23,660.8084025,662.8251614,s,1,1.0837936,P14,2023-06-26_14h45.34.724,StroopExp,2022.2.5,60.08344389
b2,stroop_trial_condtions/b2.xlsx,0.011991742,1,congruent,RED,red,a,distractors/4.wav,,,,,,,0,1,1,1,0,45,45,42,665.3207423,667.3202243,a,1,0.9000826,P14,2023-06-26_14h45.34.724,StroopExp,2022.2.5,60.08344389
b2,stroop_trial_condtions/b2.xlsx,0.858613787,1,incongruent,YELLOW,blue,d,distractors/3.wav,,,,,,,0,1,1,1,0,46,46,44,669.8363709,671.8349623,d,1,1.283044,P14,2023-06-26_14h45.34.724,StroopExp,2022.2.5,60.08344389
b2,stroop_trial_condtions/b2.xlsx,0.128195372,1,incongruent,YELLOW,red,a,distractors/3.wav,,,,,,,0,1,1,1,0,47,47,35,674.3344386,,a,1,0.8331141,P14,2023-06-26_14h45.34.724,StroopExp,2022.2.5,60.08344389
b3,stroop_trial_condtions/b1.xlsx,0.249190077,0,congruent,YELLOW,yellow,f,distractors/silence.wav,,,,,,,0,2,2,2,0,0,0,16,746.1602184,748.1596675,f,1,1.1978861,P14,2023-06-26_14h45.34.724,StroopExp,2022.2.5,60.08344389
b3,stroop_trial_condtions/b1.xlsx,0.744564924,0,congruent,GREEN,green,s,distractors/silence.wav,,,,,,,0,2,2,2,0,1,1,42,750.6765384,752.6764903,d,0,1.0432853,P14,2023-06-26_14h45.34.724,StroopExp,2022.2.5,60.08344389
b3,stroop_trial_condtions/b1.xlsx,0.63243718,0,incongruent,RED,blue,d,distractors/silence.wav,,,,,,,0,2,2,2,0,2,2,19,755.1598546,757.1596589,d,1,1.206117,P14,2023-06-26_14h45.34.724,StroopExp,2022.2.5,60.08344389
b3,stroop_trial_condtions/b1.xlsx,0.674408476,0,incongruent,BLUE,yellow,f,distractors/silence.wav,,,,,,,0,2,2,2,0,3,3,26,759.6555835,761.6548493,f,1,0.6587692,P14,2023-06-26_14h45.34.724,StroopExp,2022.2.5,60.08344389
b3,stroop_trial_condtions/b1.xlsx,0.680507855,0,incongruent,GREEN,yellow,f,distractors/silence.wav,,,,,,,0,2,2,2,0,4,4,33,764.1705965,766.1701202,f,1,0.9518266,P14,2023-06-26_14h45.34.724,StroopExp,2022.2.5,60.08344389
b3,stroop_trial_condtions/b1.xlsx,0.542994022,0,congruent,YELLOW,yellow,f,distractors/silence.wav,,,,,,,0,2,2,2,0,5,5,28,768.6690468,770.6686706,f,1,0.7350541,P14,2023-06-26_14h45.34.724,StroopExp,2022.2.5,60.08344389
b3,stroop_trial_condtions/b1.xlsx,0.733681542,0,incongruent,BLUE,green,s,distractors/silence.wav,,,,,,,0,2,2,2,0,6,6,15,773.1678133,775.1673752,s,1,1.2498848,P14,2023-06-26_14h45.34.724,StroopExp,2022.2.5,60.08344389
b3,stroop_trial_condtions/b1.xlsx,0.870406961,0,congruent,YELLOW,yellow,f,distractors/silence.wav,,,,,,,0,2,2,2,0,7,7,11,777.6655414,779.6657169,f,1,1.0743447,P14,2023-06-26_14h45.34.724,StroopExp,2022.2.5,60.08344389
b3,stroop_trial_condtions/b1.xlsx,0.870893567,0,congruent,RED,red,a,distractors/silence.wav,,,,,,,0,2,2,2,0,8,8,9,782.1643048,784.1642651,a,1,0.8619144,P14,2023-06-26_14h45.34.724,StroopExp,2022.2.5,60.08344389
b3,stroop_trial_condtions/b1.xlsx,0.543070637,0,incongruent,BLUE,yellow,f,distractors/silence.wav,,,,,,,0,2,2,2,0,9,9,1,786.6630926,788.6626283,f,1,1.116214,P14,2023-06-26_14h45.34.724,StroopExp,2022.2.5,60.08344389
b3,stroop_trial_condtions/b1.xlsx,0.027168618,0,incongruent,RED,yellow,f,distractors/silence.wav,,,,,,,0,2,2,2,0,10,10,27,791.1784171,793.1778802,f,1,1.1073847,P14,2023-06-26_14h45.34.724,StroopExp,2022.2.5,60.08344389
b3,stroop_trial_condtions/b1.xlsx,0.976569181,0,incongruent,YELLOW,blue,d,distractors/silence.wav,,,,,,,0,2,2,2,0,11,11,39,795.6767097,797.6767191,s,0,1.2450775,P14,2023-06-26_14h45.34.724,StroopExp,2022.2.5,60.08344389
b3,stroop_trial_condtions/b1.xlsx,0.419315371,0,congruent,RED,red,a,distractors/silence.wav,,,,,,,0,2,2,2,0,12,12,38,800.1601567,802.1601412,a,1,1.2517883,P14,2023-06-26_14h45.34.724,StroopExp,2022.2.5,60.08344389
b3,stroop_trial_condtions/b1.xlsx,0.976942146,0,congruent,BLUE,blue,d,distractors/silence.wav,,,,,,,0,2,2,2,0,13,13,13,804.6567874,806.6671102,d,1,1.1669361,P14,2023-06-26_14h45.34.724,StroopExp,2022.2.5,60.08344389
b3,stroop_trial_condtions/b1.xlsx,0.493018261,0,congruent,BLUE,blue,d,distractors/silence.wav,,,,,,,0,2,2,2,0,14,14,7,809.1556088,811.155214,d,1,0.8653377,P14,2023-06-26_14h45.34.724,StroopExp,2022.2.5,60.08344389
b3,stroop_trial_condtions/b1.xlsx,0.153196184,0,incongruent,YELLOW,green,s,distractors/silence.wav,,,,,,,0,2,2,2,0,15,15,31,813.6708398,815.6703614,s,1,1.0510116,P14,2023-06-26_14h45.34.724,StroopExp,2022.2.5,60.08344389
b3,stroop_trial_condtions/b1.xlsx,0.01936095,0,incongruent,YELLOW,green,s,distractors/silence.wav,,,,,,,0,2,2,2,0,16,16,2,818.1693303,820.1687632,s,1,1.570938,P14,2023-06-26_14h45.34.724,StroopExp,2022.2.5,60.08344389
b3,stroop_trial_condtions/b1.xlsx,0.708976038,0,congruent,GREEN,green,s,distractors/silence.wav,,,,,,,0,2,2,2,0,17,17,8,822.6677766,824.6670814,s,1,1.7489068,P14,2023-06-26_14h45.34.724,StroopExp,2022.2.5,60.08344389
b3,stroop_trial_condtions/b1.xlsx,0.971858016,0,congruent,RED,red,a,distractors/silence.wav,,,,,,,0,2,2,2,0,18,18,0,827.1658865,829.1653752,a,1,0.7006367,P14,2023-06-26_14h45.34.724,StroopExp,2022.2.5,60.08344389
b3,stroop_trial_condtions/b1.xlsx,0.667196906,0,incongruent,RED,green,s,distractors/silence.wav,,,,,,,0,2,2,2,0,19,19,36,831.6644702,833.6641574,s,1,1.1134948,P14,2023-06-26_14h45.34.724,StroopExp,2022.2.5,60.08344389
b3,stroop_trial_condtions/b1.xlsx,0.571650714,0,incongruent,YELLOW,red,a,distractors/silence.wav,,,,,,,0,2,2,2,0,20,20,5,836.1798117,838.1790861,a,1,1.3201282,P14,2023-06-26_14h45.34.724,StroopExp,2022.2.5,60.08344389
b3,stroop_trial_condtions/b1.xlsx,0.647841101,0,incongruent,GREEN,red,a,distractors/silence.wav,,,,,,,0,2,2,2,0,21,21,6,840.6786549,,a,1,0.8832182,P14,2023-06-26_14h45.34.724,StroopExp,2022.2.5,60.08344389
b3,stroop_trial_condtions/b1.xlsx,0.983636333,0,incongruent,RED,yellow,f,distractors/silence.wav,,,,,,,0,2,2,2,0,22,22,10,845.1779461,847.1782191,f,1,1.5834992,P14,2023-06-26_14h45.34.724,StroopExp,2022.2.5,60.08344389
b3,stroop_trial_condtions/b1.xlsx,0.830948331,0,incongruent,BLUE,green,s,distractors/silence.wav,,,,,,,0,2,2,2,0,23,23,46,849.6615618,851.6613624,s,1,0.9583845,P14,2023-06-26_14h45.34.724,StroopExp,2022.2.5,60.08344389
b3,stroop_trial_condtions/b1.xlsx,0.237396997,0,incongruent,GREEN,blue,d,distractors/silence.wav,,,,,,,0,2,2,2,0,24,24,18,854.1575972,,d,1,1.2634004,P14,2023-06-26_14h45.34.724,StroopExp,2022.2.5,60.08344389
b3,stroop_trial_condtions/b1.xlsx,0.729684234,0,incongruent,BLUE,red,a,distractors/silence.wav,,,,,,,0,2,2,2,0,25,25,29,858.6720693,860.6710718,a,1,0.7940642,P14,2023-06-26_14h45.34.724,StroopExp,2022.2.5,60.08344389
b3,stroop_trial_condtions/b1.xlsx,0.625212421,0,congruent,GREEN,green,s,distractors/silence.wav,,,,,,,0,2,2,2,0,26,26,24,863.1873876,865.1864056,s,1,1.3164049,P14,2023-06-26_14h45.34.724,StroopExp,2022.2.5,60.08344389
b3,stroop_trial_condtions/b1.xlsx,0.004767374,0,incongruent,RED,green,s,distractors/silence.wav,,,,,,,0,2,2,2,0,27,27,14,867.6857839,869.6852741,s,1,1.6062213,P14,2023-06-26_14h45.34.724,StroopExp,2022.2.5,60.08344389
b3,stroop_trial_condtions/b1.xlsx,0.583196525,0,congruent,BLUE,blue,d,distractors/silence.wav,,,,,,,0,2,2,2,0,28,28,44,872.2007543,874.2008203,d,1,1.0917963,P14,2023-06-26_14h45.34.724,StroopExp,2022.2.5,60.08344389
b3,stroop_trial_condtions/b1.xlsx,0.548087945,0,congruent,YELLOW,yellow,f,distractors/silence.wav,,,,,,,0,2,2,2,0,29,29,32,876.6992222,878.6990171,f,1,0.951249,P14,2023-06-26_14h45.34.724,StroopExp,2022.2.5,60.08344389
b3,stroop_trial_condtions/b1.xlsx,0.350328137,0,congruent,GREEN,green,s,distractors/silence.wav,,,,,,,0,2,2,2,0,30,30,20,881.1978869,,s,1,1.0994831,P14,2023-06-26_14h45.34.724,StroopExp,2022.2.5,60.08344389
b3,stroop_trial_condtions/b1.xlsx,0.922953448,0,congruent,RED,red,a,distractors/silence.wav,,,,,,,0,2,2,2,0,31,31,40,885.7132755,887.7124666,a,1,0.866191,P14,2023-06-26_14h45.34.724,StroopExp,2022.2.5,60.08344389
b3,stroop_trial_condtions/b1.xlsx,0.936669537,0,incongruent,GREEN,yellow,f,distractors/silence.wav,,,,,,,0,2,2,2,0,32,32,34,890.2284061,892.2282775,f,1,1.4536118,P14,2023-06-26_14h45.34.724,StroopExp,2022.2.5,60.08344389
b3,stroop_trial_condtions/b1.xlsx,0.68696849,0,congruent,YELLOW,yellow,f,distractors/silence.wav,,,,,,,0,2,2,2,0,33,33,45,894.7287025,896.7281787,f,1,0.9231739,P14,2023-06-26_14h45.34.724,StroopExp,2022.2.5,60.08344389
b3,stroop_trial_condtions/b1.xlsx,0.451597903,0,congruent,BLUE,blue,d,distractors/silence.wav,,,,,,,0,2,2,2,0,34,34,22,899.2124629,901.2243764,d,1,1.1219392,P14,2023-06-26_14h45.34.724,StroopExp,2022.2.5,60.08344389
b3,stroop_trial_condtions/b1.xlsx,0.251874896,0,incongruent,GREEN,blue,d,distractors/silence.wav,,,,,,,0,2,2,2,0,35,35,37,903.723409,905.7233011,d,1,1.0526299,P14,2023-06-26_14h45.34.724,StroopExp,2022.2.5,60.08344389
b3,stroop_trial_condtions/b1.xlsx,0.077117098,0,incongruent,BLUE,red,a,distractors/silence.wav,,,,,,,0,2,2,2,0,36,36,35,908.2219686,910.2218691,a,1,0.5606168,P14,2023-06-26_14h45.34.724,StroopExp,2022.2.5,60.08344389
b3,stroop_trial_condtions/b1.xlsx,0.896952266,0,incongruent,YELLOW,blue,d,distractors/silence.wav,,,,,,,0,2,2,2,0,37,37,25,912.7371972,914.736879,d,1,0.6494013,P14,2023-06-26_14h45.34.724,StroopExp,2022.2.5,60.08344389
b3,stroop_trial_condtions/b1.xlsx,0.256932032,0,congruent,BLUE,blue,d,distractors/silence.wav,,,,,,,0,2,2,2,0,38,38,30,917.2353758,919.234714,d,1,0.6513169,P14,2023-06-26_14h45.34.724,StroopExp,2022.2.5,60.08344389
b3,stroop_trial_condtions/b1.xlsx,0.072914577,0,congruent,BLUE,blue,d,distractors/silence.wav,,,,,,,0,2,2,2,0,39,39,3,921.751077,923.7499404,d,1,0.7095595,P14,2023-06-26_14h45.34.724,StroopExp,2022.2.5,60.08344389
b3,stroop_trial_condtions/b1.xlsx,0.660435133,0,congruent,GREEN,green,s,distractors/silence.wav,,,,,,,0,2,2,2,0,40,40,4,926.2500507,,s,1,0.8699602,P14,2023-06-26_14h45.34.724,StroopExp,2022.2.5,60.08344389
b3,stroop_trial_condtions/b1.xlsx,0.401782254,0,incongruent,YELLOW,red,a,distractors/silence.wav,,,,,,,0,2,2,2,0,41,41,12,930.7645061,932.7638327,f,0,0.8857441,P14,2023-06-26_14h45.34.724,StroopExp,2022.2.5,60.08344389
b3,stroop_trial_condtions/b1.xlsx,0.8328021,0,incongruent,GREEN,red,a,distractors/silence.wav,,,,,,,0,2,2,2,0,42,42,41,935.2634752,,a,1,1.2928161,P14,2023-06-26_14h45.34.724,StroopExp,2022.2.5,60.08344389
b3,stroop_trial_condtions/b1.xlsx,0.579491601,0,congruent,RED,red,a,distractors/silence.wav,,,,,,,0,2,2,2,0,43,43,47,939.7623698,941.7625414,a,1,0.7296458,P14,2023-06-26_14h45.34.724,StroopExp,2022.2.5,60.08344389
b3,stroop_trial_condtions/b1.xlsx,0.199393364,0,congruent,YELLOW,yellow,f,distractors/silence.wav,,,,,,,0,2,2,2,0,44,44,23,944.2627073,946.2628143,f,1,0.9700389,P14,2023-06-26_14h45.34.724,StroopExp,2022.2.5,60.08344389
b3,stroop_trial_condtions/b1.xlsx,0.191332161,0,congruent,GREEN,green,s,distractors/silence.wav,,,,,,,0,2,2,2,0,45,45,43,948.7584194,950.7577392,s,1,1.0939668,P14,2023-06-26_14h45.34.724,StroopExp,2022.2.5,60.08344389
b3,stroop_trial_condtions/b1.xlsx,0.935097843,0,incongruent,RED,blue,d,distractors/silence.wav,,,,,,,0,2,2,2,0,46,46,17,953.2572986,,d,1,1.0807906,P14,2023-06-26_14h45.34.724,StroopExp,2022.2.5,60.08344389
b3,stroop_trial_condtions/b1.xlsx,0.939662107,0,congruent,RED,red,a,distractors/silence.wav,,,,,,,0,2,2,2,0,47,47,21,957.7723699,,a,1,0.699867,P14,2023-06-26_14h45.34.724,StroopExp,2022.2.5,60.08344389
b4,stroop_trial_condtions/b3.xlsx,0.600008433,1,congruent,BLUE,blue,d,distractors/3.wav,,,,,,,0,3,3,3,0,0,0,42,1034.847415,1036.847775,d,1,1.0905282,P14,2023-06-26_14h45.34.724,StroopExp,2022.2.5,60.08344389
b4,stroop_trial_condtions/b3.xlsx,0.521565887,1,incongruent,YELLOW,blue,d,distractors/3.wav,,,,,,,0,3,3,3,0,1,1,14,1039.331043,1041.330833,d,1,1.0053153,P14,2023-06-26_14h45.34.724,StroopExp,2022.2.5,60.08344389
b4,stroop_trial_condtions/b3.xlsx,0.055781084,1,incongruent,RED,yellow,f,distractors/4.wav,,,,,,,0,3,3,3,0,2,2,43,1043.826452,1045.82572,f,1,0.6264695,P14,2023-06-26_14h45.34.724,StroopExp,2022.2.5,60.08344389
b4,stroop_trial_condtions/b3.xlsx,0.264144016,1,congruent,RED,red,a,distractors/2.wav,,,,,,,0,3,3,3,0,3,3,6,1048.324931,1050.324224,a,1,0.5410441,P14,2023-06-26_14h45.34.724,StroopExp,2022.2.5,60.08344389
b4,stroop_trial_condtions/b3.xlsx,0.6103536,1,incongruent,RED,green,s,distractors/2.wav,,,,,,,0,3,3,3,0,4,4,16,1052.840134,1054.839367,s,1,0.4938939,P14,2023-06-26_14h45.34.724,StroopExp,2022.2.5,60.08344389
b4,stroop_trial_condtions/b3.xlsx,0.017634479,1,incongruent,RED,blue,d,distractors/3.wav,,,,,,,0,3,3,3,0,5,5,31,1057.354623,1059.354287,d,1,1.1635358,P14,2023-06-26_14h45.34.724,StroopExp,2022.2.5,60.08344389
b4,stroop_trial_condtions/b3.xlsx,0.010072896,1,congruent,RED,red,a,distractors/4.wav,,,,,,,0,3,3,3,0,6,6,37,1061.853426,1063.853716,a,1,0.7407741,P14,2023-06-26_14h45.34.724,StroopExp,2022.2.5,60.08344389
b4,stroop_trial_condtions/b3.xlsx,0.388628644,1,congruent,RED,red,a,distractors/4.wav,,,,,,,0,3,3,3,0,7,7,17,1066.368636,1068.368107,a,1,0.6943265,P14,2023-06-26_14h45.34.724,StroopExp,2022.2.5,60.08344389
b4,stroop_trial_condtions/b3.xlsx,0.741548313,1,congruent,YELLOW,yellow,f,distractors/1.wav,,,,,,,0,3,3,3,0,8,8,22,1070.884012,1072.883256,f,1,0.7582356,P14,2023-06-26_14h45.34.724,StroopExp,2022.2.5,60.08344389
b4,stroop_trial_condtions/b3.xlsx,0.56899076,1,congruent,BLUE,blue,d,distractors/3.wav,,,,,,,0,3,3,3,0,9,9,28,1075.40055,,d,1,1.0183146,P14,2023-06-26_14h45.34.724,StroopExp,2022.2.5,60.08344389
b4,stroop_trial_condtions/b3.xlsx,0.425610132,1,congruent,BLUE,blue,d,distractors/4.wav,,,,,,,0,3,3,3,0,10,10,9,1079.914833,1081.914744,d,1,0.7418155,P14,2023-06-26_14h45.34.724,StroopExp,2022.2.5,60.08344389
b4,stroop_trial_condtions/b3.xlsx,0.927706406,1,incongruent,BLUE,red,a,distractors/1.wav,,,,,,,0,3,3,3,0,11,11,32,1084.415019,1086.414621,a,1,1.0334883,P14,2023-06-26_14h45.34.724,StroopExp,2022.2.5,60.08344389
b4,stroop_trial_condtions/b3.xlsx,0.801341495,1,incongruent,BLUE,yellow,f,distractors/4.wav,,,,,,,0,3,3,3,0,12,12,4,1088.914985,,f,1,0.6273118,P14,2023-06-26_14h45.34.724,StroopExp,2022.2.5,60.08344389
b4,stroop_trial_condtions/b3.xlsx,0.759150938,1,congruent,YELLOW,yellow,f,distractors/3.wav,,,,,,,0,3,3,3,0,13,13,36,1093.41517,1095.425642,f,1,0.7235008,P14,2023-06-26_14h45.34.724,StroopExp,2022.2.5,60.08344389
b4,stroop_trial_condtions/b3.xlsx,0.10397583,1,incongruent,BLUE,green,s,distractors/1.wav,,,,,,,0,3,3,3,0,14,14,47,1097.924807,1099.924661,s,1,1.1612416,P14,2023-06-26_14h45.34.724,StroopExp,2022.2.5,60.08344389
b4,stroop_trial_condtions/b3.xlsx,0.337871903,1,incongruent,RED,yellow,f,distractors/4.wav,,,,,,,0,3,3,3,0,15,15,19,1102.406854,1104.405666,f,1,0.749312,P14,2023-06-26_14h45.34.724,StroopExp,2022.2.5,60.08344389
b4,stroop_trial_condtions/b3.xlsx,0.801010583,1,incongruent,RED,blue,d,distractors/2.wav,,,,,,,0,3,3,3,0,16,16,13,1106.93916,,d,1,0.9868889,P14,2023-06-26_14h45.34.724,StroopExp,2022.2.5,60.08344389
b4,stroop_trial_condtions/b3.xlsx,0.490953462,1,congruent,GREEN,green,s,distractors/4.wav,,,,,,,0,3,3,3,0,17,17,1,1111.453422,1113.453074,s,1,1.0688642,P14,2023-06-26_14h45.34.724,StroopExp,2022.2.5,60.08344389
b4,stroop_trial_condtions/b3.xlsx,0.749087818,1,congruent,GREEN,green,s,distractors/2.wav,,,,,,,0,3,3,3,0,18,18,46,1115.952124,1117.951572,s,1,0.8994477,P14,2023-06-26_14h45.34.724,StroopExp,2022.2.5,60.08344389
b4,stroop_trial_condtions/b3.xlsx,0.854349554,1,congruent,YELLOW,yellow,f,distractors/3.wav,,,,,,,0,3,3,3,0,19,19,27,1120.467485,1122.466835,f,1,0.7612917,P14,2023-06-26_14h45.34.724,StroopExp,2022.2.5,60.08344389
b4,stroop_trial_condtions/b3.xlsx,0.22157821,1,incongruent,RED,green,s,distractors/4.wav,,,,,,,0,3,3,3,0,20,20,26,1124.982432,1126.982324,s,1,0.9161364,P14,2023-06-26_14h45.34.724,StroopExp,2022.2.5,60.08344389
b4,stroop_trial_condtions/b3.xlsx,0.229480302,1,congruent,YELLOW,yellow,f,distractors/3.wav,,,,,,,0,3,3,3,0,21,21,0,1129.465816,1131.465765,f,1,0.6682373,P14,2023-06-26_14h45.34.724,StroopExp,2022.2.5,60.08344389
b4,stroop_trial_condtions/b3.xlsx,0.512136417,1,congruent,BLUE,blue,d,distractors/3.wav,,,,,,,0,3,3,3,0,22,22,40,1133.949124,1135.962088,d,1,0.9609062,P14,2023-06-26_14h45.34.724,StroopExp,2022.2.5,60.08344389
b4,stroop_trial_condtions/b3.xlsx,0.139842966,1,congruent,GREEN,green,s,distractors/2.wav,,,,,,,0,3,3,3,0,23,23,8,1138.461316,1140.46064,s,1,1.1253561,P14,2023-06-26_14h45.34.724,StroopExp,2022.2.5,60.08344389
b4,stroop_trial_condtions/b3.xlsx,0.999512659,1,incongruent,GREEN,yellow,f,distractors/1.wav,,,,,,,0,3,3,3,0,24,24,39,1142.959828,1144.959249,f,1,0.8284213,P14,2023-06-26_14h45.34.724,StroopExp,2022.2.5,60.08344389
b4,stroop_trial_condtions/b3.xlsx,0.457447166,1,congruent,RED,red,a,distractors/1.wav,,,,,,,0,3,3,3,0,25,25,41,1147.457912,1149.457394,a,1,0.500918,P14,2023-06-26_14h45.34.724,StroopExp,2022.2.5,60.08344389
b4,stroop_trial_condtions/b3.xlsx,0.253236555,1,congruent,GREEN,green,s,distractors/1.wav,,,,,,,0,3,3,3,0,26,26,10,1151.97307,1153.972566,s,1,1.1695533,P14,2023-06-26_14h45.34.724,StroopExp,2022.2.5,60.08344389
b4,stroop_trial_condtions/b3.xlsx,0.422027805,1,incongruent,YELLOW,green,s,distractors/2.wav,,,,,,,0,3,3,3,0,27,27,33,1156.471797,1158.470975,s,1,1.4788463,P14,2023-06-26_14h45.34.724,StroopExp,2022.2.5,60.08344389
b4,stroop_trial_condtions/b3.xlsx,0.469997319,1,incongruent,YELLOW,red,a,distractors/2.wav,,,,,,,0,3,3,3,0,28,28,34,1160.970229,1162.969654,a,1,1.1518139,P14,2023-06-26_14h45.34.724,StroopExp,2022.2.5,60.08344389
b4,stroop_trial_condtions/b3.xlsx,0.801680892,1,incongruent,YELLOW,red,a,distractors/3.wav,,,,,,,0,3,3,3,0,29,29,35,1165.468796,1167.468156,a,1,0.7240731,P14,2023-06-26_14h45.34.724,StroopExp,2022.2.5,60.08344389
b4,stroop_trial_condtions/b3.xlsx,0.629652757,1,incongruent,GREEN,red,a,distractors/4.wav,,,,,,,0,3,3,3,0,30,30,24,1169.950545,1171.949982,a,1,0.7163533,P14,2023-06-26_14h45.34.724,StroopExp,2022.2.5,60.08344389
b4,stroop_trial_condtions/b3.xlsx,0.488087669,1,congruent,RED,red,a,distractors/4.wav,,,,,,,0,3,3,3,0,31,31,38,1174.482722,1176.483043,a,1,0.8697295,P14,2023-06-26_14h45.34.724,StroopExp,2022.2.5,60.08344389
b4,stroop_trial_condtions/b3.xlsx,0.091035715,1,incongruent,BLUE,yellow,f,distractors/3.wav,,,,,,,0,3,3,3,0,32,32,7,1178.966661,1180.966383,f,1,0.6116118,P14,2023-06-26_14h45.34.724,StroopExp,2022.2.5,60.08344389
b4,stroop_trial_condtions/b3.xlsx,0.552411576,1,incongruent,GREEN,blue,d,distractors/4.wav,,,,,,,0,3,3,3,0,33,33,15,1183.462919,1185.46217,d,1,1.0771801,P14,2023-06-26_14h45.34.724,StroopExp,2022.2.5,60.08344389
b4,stroop_trial_condtions/b3.xlsx,0.304890161,1,incongruent,BLUE,green,s,distractors/1.wav,,,,,,,0,3,3,3,0,34,34,21,1187.977925,1189.977448,s,1,0.9703632,P14,2023-06-26_14h45.34.724,StroopExp,2022.2.5,60.08344389
b4,stroop_trial_condtions/b3.xlsx,0.509195284,1,congruent,RED,red,a,distractors/3.wav,,,,,,,0,3,3,3,0,35,35,23,1192.49327,,a,1,0.7428929,P14,2023-06-26_14h45.34.724,StroopExp,2022.2.5,60.08344389
b4,stroop_trial_condtions/b3.xlsx,0.504266909,1,congruent,BLUE,blue,d,distractors/2.wav,,,,,,,0,3,3,3,0,36,36,25,1197.008438,,d,1,0.9380598,P14,2023-06-26_14h45.34.724,StroopExp,2022.2.5,60.08344389
b4,stroop_trial_condtions/b3.xlsx,0.965444972,1,congruent,BLUE,blue,d,distractors/2.wav,,,,,,,0,3,3,3,0,37,37,2,1201.523294,1203.522574,d,1,0.5973044,P14,2023-06-26_14h45.34.724,StroopExp,2022.2.5,60.08344389
b4,stroop_trial_condtions/b3.xlsx,0.585762683,1,congruent,GREEN,green,s,distractors/2.wav,,,,,,,0,3,3,3,0,38,38,18,1206.038419,1208.038479,s,1,1.2457409,P14,2023-06-26_14h45.34.724,StroopExp,2022.2.5,60.08344389
b4,stroop_trial_condtions/b3.xlsx,0.677170745,1,congruent,GREEN,green,s,distractors/1.wav,,,,,,,0,3,3,3,0,39,39,5,1210.553535,1212.55274,s,1,0.7253255,P14,2023-06-26_14h45.34.724,StroopExp,2022.2.5,60.08344389
b4,stroop_trial_condtions/b3.xlsx,0.507803195,1,congruent,YELLOW,yellow,f,distractors/3.wav,,,,,,,0,3,3,3,0,40,40,45,1215.069217,1217.068027,f,1,1.2229768,P14,2023-06-26_14h45.34.724,StroopExp,2022.2.5,60.08344389
b4,stroop_trial_condtions/b3.xlsx,0.289836119,1,incongruent,GREEN,yellow,f,distractors/2.wav,,,,,,,0,3,3,3,0,41,41,20,1219.567319,1221.566866,f,1,0.766269,P14,2023-06-26_14h45.34.724,StroopExp,2022.2.5,60.08344389
b4,stroop_trial_condtions/b3.xlsx,0.871165656,1,congruent,YELLOW,yellow,f,distractors/1.wav,,,,,,,0,3,3,3,0,42,42,11,1224.067121,1226.067173,f,1,0.9217533,P14,2023-06-26_14h45.34.724,StroopExp,2022.2.5,60.08344389
b4,stroop_trial_condtions/b3.xlsx,0.217828855,1,incongruent,GREEN,blue,d,distractors/1.wav,,,,,,,0,3,3,3,0,43,43,44,1228.550636,1230.550735,d,1,1.1174669,P14,2023-06-26_14h45.34.724,StroopExp,2022.2.5,60.08344389
b4,stroop_trial_condtions/b3.xlsx,0.468515905,1,incongruent,YELLOW,green,s,distractors/1.wav,,,,,,,0,3,3,3,0,44,44,3,1233.046175,1235.045191,s,1,0.5608345,P14,2023-06-26_14h45.34.724,StroopExp,2022.2.5,60.08344389
b4,stroop_trial_condtions/b3.xlsx,0.794314825,1,incongruent,BLUE,red,a,distractors/1.wav,,,,,,,0,3,3,3,0,45,45,30,1237.544552,1239.54362,a,1,0.8536042,P14,2023-06-26_14h45.34.724,StroopExp,2022.2.5,60.08344389
b4,stroop_trial_condtions/b3.xlsx,0.585825436,1,incongruent,YELLOW,blue,d,distractors/2.wav,,,,,,,0,3,3,3,0,46,46,12,1242.05969,1244.058735,d,1,1.3746316,P14,2023-06-26_14h45.34.724,StroopExp,2022.2.5,60.08344389
b4,stroop_trial_condtions/b3.xlsx,0.214405789,1,incongruent,GREEN,red,a,distractors/4.wav,,,,,,,0,3,3,3,0,47,47,29,1246.557954,1248.557527,a,1,0.7585777,P14,2023-06-26_14h45.34.724,StroopExp,2022.2.5,60.08344389
