block_number,location,Index,has_distraction,trial_type,word,color,correct_key,distraction_file_name,practice_trials_4X5.thisRepN,practice_trials_4X5.thisTrialN,practice_trials_4X5.thisN,practice_trials_4X5.thisIndex,blocks.thisRepN,blocks.thisTrialN,blocks.thisN,blocks.thisIndex,trials.thisRepN,trials.thisTrialN,trials.thisN,trials.thisIndex,key_stroop.started,key_stroop.stopped,key_stroop.keys,key_stroop.corr,key_stroop.rt,participant,date,expName,psychopyVersion,frameRate
b1,stroop_trial_condtions/b1.xlsx,0.01936095,0,incongruent,YELLOW,green,s,distractors/silence.wav,,,,,0,4,4,4,0,0,0,2,1435.753598,,s,1,1.4180856,P24,2023-06-27_11h40.18.591,StroopExp,2022.2.5,60.16231793
b1,stroop_trial_condtions/b1.xlsx,0.870893567,0,congruent,RED,red,a,distractors/silence.wav,,,,,0,4,4,4,0,1,1,9,1440.26865,1442.26791,a,1,0.8865248,P24,2023-06-27_11h40.18.591,StroopExp,2022.2.5,60.16231793
b1,stroop_trial_condtions/b1.xlsx,0.870406961,0,congruent,YELLOW,yellow,f,distractors/silence.wav,,,,,0,4,4,4,0,2,2,11,1444.767376,1446.766696,f,1,1.1079329,P24,2023-06-27_11h40.18.591,StroopExp,2022.2.5,60.16231793
b1,stroop_trial_condtions/b1.xlsx,0.976569181,0,incongruent,YELLOW,blue,d,distractors/silence.wav,,,,,0,4,4,4,0,3,3,39,1449.266364,1451.265516,d,1,1.2292116,P24,2023-06-27_11h40.18.591,StroopExp,2022.2.5,60.16231793
b1,stroop_trial_condtions/b1.xlsx,0.153196184,0,incongruent,YELLOW,green,s,distractors/silence.wav,,,,,0,4,4,4,0,4,4,31,1453.749306,1455.748918,s,1,1.3524752,P24,2023-06-27_11h40.18.591,StroopExp,2022.2.5,60.16231793
b1,stroop_trial_condtions/b1.xlsx,0.350328137,0,congruent,GREEN,green,s,distractors/silence.wav,,,,,0,4,4,4,0,5,5,20,1458.249201,,s,1,1.0424564,P24,2023-06-27_11h40.18.591,StroopExp,2022.2.5,60.16231793
b1,stroop_trial_condtions/b1.xlsx,0.744564924,0,congruent,GREEN,green,s,distractors/silence.wav,,,,,0,4,4,4,0,6,6,42,1462.76129,1464.760598,s,1,0.7623826,P24,2023-06-27_11h40.18.591,StroopExp,2022.2.5,60.16231793
b1,stroop_trial_condtions/b1.xlsx,0.68696849,0,congruent,YELLOW,yellow,f,distractors/silence.wav,,,,,0,4,4,4,0,7,7,45,1467.276327,1469.275616,f,1,1.0748824,P24,2023-06-27_11h40.18.591,StroopExp,2022.2.5,60.16231793
b1,stroop_trial_condtions/b1.xlsx,0.251874896,0,incongruent,GREEN,blue,d,distractors/silence.wav,,,,,0,4,4,4,0,8,8,37,1471.791711,1473.790892,d,1,1.6782898,P24,2023-06-27_11h40.18.591,StroopExp,2022.2.5,60.16231793
b1,stroop_trial_condtions/b1.xlsx,0.451597903,0,congruent,BLUE,blue,d,distractors/silence.wav,,,,,0,4,4,4,0,9,9,22,1476.306378,1478.305887,d,1,1.0668121,P24,2023-06-27_11h40.18.591,StroopExp,2022.2.5,60.16231793
b1,stroop_trial_condtions/b1.xlsx,0.072914577,0,congruent,BLUE,blue,d,distractors/silence.wav,,,,,0,4,4,4,0,10,10,3,1480.82167,1482.821305,d,1,0.9356306,P24,2023-06-27_11h40.18.591,StroopExp,2022.2.5,60.16231793
b1,stroop_trial_condtions/b1.xlsx,0.936669537,0,incongruent,GREEN,yellow,f,distractors/silence.wav,,,,,0,4,4,4,0,11,11,34,1485.320285,1487.320735,f,1,1.2504202,P24,2023-06-27_11h40.18.591,StroopExp,2022.2.5,60.16231793
b1,stroop_trial_condtions/b1.xlsx,0.579491601,0,congruent,RED,red,a,distractors/silence.wav,,,,,0,4,4,4,0,12,12,47,1489.818421,1491.81862,a,1,1.0936523,P24,2023-06-27_11h40.18.591,StroopExp,2022.2.5,60.16231793
b1,stroop_trial_condtions/b1.xlsx,0.249190077,0,congruent,YELLOW,yellow,f,distractors/silence.wav,,,,,0,4,4,4,0,13,13,16,1494.333915,1496.333384,f,1,1.3701371,P24,2023-06-27_11h40.18.591,StroopExp,2022.2.5,60.16231793
b1,stroop_trial_condtions/b1.xlsx,0.199393364,0,congruent,YELLOW,yellow,f,distractors/silence.wav,,,,,0,4,4,4,0,14,14,23,1498.849615,1500.849861,f,1,0.937795,P24,2023-06-27_11h40.18.591,StroopExp,2022.2.5,60.16231793
b1,stroop_trial_condtions/b1.xlsx,0.63243718,0,incongruent,RED,blue,d,distractors/silence.wav,,,,,0,4,4,4,0,15,15,19,1503.333042,1505.333126,d,1,1.4541189,P24,2023-06-27_11h40.18.591,StroopExp,2022.2.5,60.16231793
b1,stroop_trial_condtions/b1.xlsx,0.542994022,0,congruent,YELLOW,yellow,f,distractors/silence.wav,,,,,0,4,4,4,0,16,16,28,1507.846069,1509.845381,f,1,1.167224,P24,2023-06-27_11h40.18.591,StroopExp,2022.2.5,60.16231793
b1,stroop_trial_condtions/b1.xlsx,0.191332161,0,congruent,GREEN,green,s,distractors/silence.wav,,,,,0,4,4,4,0,17,17,43,1512.360904,1514.360181,s,1,1.0872681,P24,2023-06-27_11h40.18.591,StroopExp,2022.2.5,60.16231793
b1,stroop_trial_condtions/b1.xlsx,0.896952266,0,incongruent,YELLOW,blue,d,distractors/silence.wav,,,,,0,4,4,4,0,18,18,25,1516.876287,1518.892016,d,1,1.7954754,P24,2023-06-27_11h40.18.591,StroopExp,2022.2.5,60.16231793
b1,stroop_trial_condtions/b1.xlsx,0.680507855,0,incongruent,GREEN,yellow,f,distractors/silence.wav,,,,,0,4,4,4,0,19,19,33,1521.376143,,f,1,1.5647507,P24,2023-06-27_11h40.18.591,StroopExp,2022.2.5,60.16231793
b1,stroop_trial_condtions/b1.xlsx,0.8328021,0,incongruent,GREEN,red,a,distractors/silence.wav,,,,,0,4,4,4,0,20,20,41,1525.889568,1527.889247,a,1,1.6835595,P24,2023-06-27_11h40.18.591,StroopExp,2022.2.5,60.16231793
b1,stroop_trial_condtions/b1.xlsx,0.733681542,0,incongruent,BLUE,green,s,distractors/silence.wav,,,,,0,4,4,4,0,21,21,15,1530.405843,1532.404262,s,1,1.1873588,P24,2023-06-27_11h40.18.591,StroopExp,2022.2.5,60.16231793
b1,stroop_trial_condtions/b1.xlsx,0.543070637,0,incongruent,BLUE,yellow,f,distractors/silence.wav,,,,,0,4,4,4,0,22,22,1,1534.90371,1536.902943,f,1,1.4669339,P24,2023-06-27_11h40.18.591,StroopExp,2022.2.5,60.16231793
b1,stroop_trial_condtions/b1.xlsx,0.729684234,0,incongruent,BLUE,red,a,distractors/silence.wav,,,,,0,4,4,4,0,23,23,29,1539.402147,1541.401515,a,1,1.5679754,P24,2023-06-27_11h40.18.591,StroopExp,2022.2.5,60.16231793
b1,stroop_trial_condtions/b1.xlsx,0.708976038,0,congruent,GREEN,green,s,distractors/silence.wav,,,,,0,4,4,4,0,24,24,8,1543.933916,1545.933805,s,1,1.469951,P24,2023-06-27_11h40.18.591,StroopExp,2022.2.5,60.16231793
b1,stroop_trial_condtions/b1.xlsx,0.548087945,0,congruent,YELLOW,yellow,f,distractors/silence.wav,,,,,0,4,4,4,0,25,25,32,1548.417075,1550.417399,f,1,1.3948406,P24,2023-06-27_11h40.18.591,StroopExp,2022.2.5,60.16231793
b1,stroop_trial_condtions/b1.xlsx,0.660435133,0,congruent,GREEN,green,s,distractors/silence.wav,,,,,0,4,4,4,0,26,26,4,1552.917384,,s,1,1.5200442,P24,2023-06-27_11h40.18.591,StroopExp,2022.2.5,60.16231793
b1,stroop_trial_condtions/b1.xlsx,0.237396997,0,incongruent,GREEN,blue,d,distractors/silence.wav,,,,,0,4,4,4,0,27,27,18,1557.429369,1559.429024,d,1,1.7541054,P24,2023-06-27_11h40.18.591,StroopExp,2022.2.5,60.16231793
b1,stroop_trial_condtions/b1.xlsx,0.625212421,0,congruent,GREEN,green,s,distractors/silence.wav,,,,,0,4,4,4,0,28,28,24,1561.944469,1563.943471,s,1,1.228854,P24,2023-06-27_11h40.18.591,StroopExp,2022.2.5,60.16231793
b1,stroop_trial_condtions/b1.xlsx,0.976942146,0,congruent,BLUE,blue,d,distractors/silence.wav,,,,,0,4,4,4,0,29,29,13,1566.459941,,d,1,1.0698926,P24,2023-06-27_11h40.18.591,StroopExp,2022.2.5,60.16231793
b1,stroop_trial_condtions/b1.xlsx,0.419315371,0,congruent,RED,red,a,distractors/silence.wav,,,,,0,4,4,4,0,30,30,38,1570.974678,1572.973811,a,1,1.2011864,P24,2023-06-27_11h40.18.591,StroopExp,2022.2.5,60.16231793
b1,stroop_trial_condtions/b1.xlsx,0.667196906,0,incongruent,RED,green,s,distractors/silence.wav,,,,,0,4,4,4,0,31,31,36,1575.473026,1577.472727,s,1,1.3128266,P24,2023-06-27_11h40.18.591,StroopExp,2022.2.5,60.16231793
b1,stroop_trial_condtions/b1.xlsx,0.571650714,0,incongruent,YELLOW,red,a,distractors/silence.wav,,,,,0,4,4,4,0,32,32,5,1579.971985,,a,1,1.3782329,P24,2023-06-27_11h40.18.591,StroopExp,2022.2.5,60.16231793
b1,stroop_trial_condtions/b1.xlsx,0.077117098,0,incongruent,BLUE,red,a,distractors/silence.wav,,,,,0,4,4,4,0,33,33,35,1584.486744,1586.485794,a,1,1.3072962,P24,2023-06-27_11h40.18.591,StroopExp,2022.2.5,60.16231793
b1,stroop_trial_condtions/b1.xlsx,0.830948331,0,incongruent,BLUE,green,s,distractors/silence.wav,,,,,0,4,4,4,0,34,34,46,1589.002009,1591.001576,s,1,1.4070935,P24,2023-06-27_11h40.18.591,StroopExp,2022.2.5,60.16231793
b1,stroop_trial_condtions/b1.xlsx,0.674408476,0,incongruent,BLUE,yellow,f,distractors/silence.wav,,,,,0,4,4,4,0,35,35,26,1593.501005,1595.501142,f,1,1.3207858,P24,2023-06-27_11h40.18.591,StroopExp,2022.2.5,60.16231793
b1,stroop_trial_condtions/b1.xlsx,0.983636333,0,incongruent,RED,yellow,f,distractors/silence.wav,,,,,0,4,4,4,0,36,36,10,1597.984471,1599.984343,f,1,1.1087228,P24,2023-06-27_11h40.18.591,StroopExp,2022.2.5,60.16231793
b1,stroop_trial_condtions/b1.xlsx,0.401782254,0,incongruent,YELLOW,red,a,distractors/silence.wav,,,,,0,4,4,4,0,37,37,12,1602.481158,,a,1,1.304445,P24,2023-06-27_11h40.18.591,StroopExp,2022.2.5,60.16231793
b1,stroop_trial_condtions/b1.xlsx,0.256932032,0,congruent,BLUE,blue,d,distractors/silence.wav,,,,,0,4,4,4,0,38,38,30,1606.995598,1608.995216,d,1,1.1431136,P24,2023-06-27_11h40.18.591,StroopExp,2022.2.5,60.16231793
b1,stroop_trial_condtions/b1.xlsx,0.583196525,0,congruent,BLUE,blue,d,distractors/silence.wav,,,,,0,4,4,4,0,39,39,44,1611.510906,1613.51023,d,1,0.978954,P24,2023-06-27_11h40.18.591,StroopExp,2022.2.5,60.16231793
b1,stroop_trial_condtions/b1.xlsx,0.939662107,0,congruent,RED,red,a,distractors/silence.wav,,,,,0,4,4,4,0,40,40,21,1616.025623,1618.025164,a,1,1.060074,P24,2023-06-27_11h40.18.591,StroopExp,2022.2.5,60.16231793
b1,stroop_trial_condtions/b1.xlsx,0.004767374,0,incongruent,RED,green,s,distractors/silence.wav,,,,,0,4,4,4,0,41,41,14,1620.541807,,s,1,1.1217059,P24,2023-06-27_11h40.18.591,StroopExp,2022.2.5,60.16231793
b1,stroop_trial_condtions/b1.xlsx,0.027168618,0,incongruent,RED,yellow,f,distractors/silence.wav,,,,,0,4,4,4,0,42,42,27,1625.056598,1627.055836,f,1,1.0771118,P24,2023-06-27_11h40.18.591,StroopExp,2022.2.5,60.16231793
b1,stroop_trial_condtions/b1.xlsx,0.922953448,0,congruent,RED,red,a,distractors/silence.wav,,,,,0,4,4,4,0,43,43,40,1629.57149,1631.571005,a,1,1.0305645,P24,2023-06-27_11h40.18.591,StroopExp,2022.2.5,60.16231793
b1,stroop_trial_condtions/b1.xlsx,0.971858016,0,congruent,RED,red,a,distractors/silence.wav,,,,,0,4,4,4,0,44,44,0,1634.086486,1636.085906,a,1,1.0097156,P24,2023-06-27_11h40.18.591,StroopExp,2022.2.5,60.16231793
b1,stroop_trial_condtions/b1.xlsx,0.493018261,0,congruent,BLUE,blue,d,distractors/silence.wav,,,,,0,4,4,4,0,45,45,7,1638.584957,1640.585328,d,1,1.2564437,P24,2023-06-27_11h40.18.591,StroopExp,2022.2.5,60.16231793
b1,stroop_trial_condtions/b1.xlsx,0.935097843,0,incongruent,RED,blue,d,distractors/silence.wav,,,,,0,4,4,4,0,46,46,17,1643.068559,1645.068708,d,1,1.2377897,P24,2023-06-27_11h40.18.591,StroopExp,2022.2.5,60.16231793
b1,stroop_trial_condtions/b1.xlsx,0.647841101,0,incongruent,GREEN,red,a,distractors/silence.wav,,,,,0,4,4,4,0,47,47,6,1647.551856,1649.5483,a,1,1.1418474,P24,2023-06-27_11h40.18.591,StroopExp,2022.2.5,60.16231793
b2,stroop_trial_condtions/b2.xlsx,0.776926078,1,incongruent,GREEN,blue,d,distractors/4.wav,,,,,0,1,1,1,0,0,0,22,554.5527593,556.5530348,d,1,1.6084315,P24,2023-06-27_11h40.18.591,StroopExp,2022.2.5,60.16231793
b2,stroop_trial_condtions/b2.xlsx,0.164948028,1,congruent,GREEN,green,s,distractors/4.wav,,,,,0,1,1,1,0,1,1,23,559.0360164,561.0361073,s,1,1.4440661,P24,2023-06-27_11h40.18.591,StroopExp,2022.2.5,60.16231793
b2,stroop_trial_condtions/b2.xlsx,0.340063562,1,congruent,YELLOW,yellow,f,distractors/3.wav,,,,,0,1,1,1,0,2,2,12,563.548359,565.5478484,f,1,1.6776244,P24,2023-06-27_11h40.18.591,StroopExp,2022.2.5,60.16231793
b2,stroop_trial_condtions/b2.xlsx,0.767680624,1,congruent,BLUE,blue,d,distractors/3.wav,,,,,0,1,1,1,0,3,3,32,568.0469349,570.0635435,d,1,1.4720981,P24,2023-06-27_11h40.18.591,StroopExp,2022.2.5,60.16231793
b2,stroop_trial_condtions/b2.xlsx,0.25539718,1,congruent,YELLOW,yellow,f,distractors/1.wav,,,,,0,1,1,1,0,4,4,45,572.5451131,574.5447993,f,1,1.1442741,P24,2023-06-27_11h40.18.591,StroopExp,2022.2.5,60.16231793
b2,stroop_trial_condtions/b2.xlsx,0.107154682,1,incongruent,BLUE,green,s,distractors/3.wav,,,,,0,1,1,1,0,5,5,33,577.043864,579.0432628,s,1,1.3683361,P24,2023-06-27_11h40.18.591,StroopExp,2022.2.5,60.16231793
b2,stroop_trial_condtions/b2.xlsx,0.065023824,1,incongruent,GREEN,yellow,f,distractors/1.wav,,,,,0,1,1,1,0,6,6,7,581.5420548,583.562532,f,1,1.7062028,P24,2023-06-27_11h40.18.591,StroopExp,2022.2.5,60.16231793
b2,stroop_trial_condtions/b2.xlsx,0.42490795,1,congruent,GREEN,green,s,distractors/2.wav,,,,,0,1,1,1,0,7,7,4,586.0407268,588.0401292,s,1,1.4346525,P24,2023-06-27_11h40.18.591,StroopExp,2022.2.5,60.16231793
b2,stroop_trial_condtions/b2.xlsx,0.50307865,1,incongruent,YELLOW,green,s,distractors/4.wav,,,,,0,1,1,1,0,8,8,19,590.5560135,,s,1,1.6190617,P24,2023-06-27_11h40.18.591,StroopExp,2022.2.5,60.16231793
b2,stroop_trial_condtions/b2.xlsx,0.492685632,1,congruent,RED,red,a,distractors/4.wav,,,,,0,1,1,1,0,9,9,27,595.0712856,597.0706583,a,1,1.4720239,P24,2023-06-27_11h40.18.591,StroopExp,2022.2.5,60.16231793
b2,stroop_trial_condtions/b2.xlsx,0.500798324,1,incongruent,BLUE,green,s,distractors/1.wav,,,,,0,1,1,1,0,10,10,18,599.5861108,601.5867227,s,1,1.6976371,P24,2023-06-27_11h40.18.591,StroopExp,2022.2.5,60.16231793
b2,stroop_trial_condtions/b2.xlsx,0.566650633,1,incongruent,GREEN,yellow,f,distractors/3.wav,,,,,0,1,1,1,0,11,11,0,604.0866208,606.0865839,f,1,1.7932248,P24,2023-06-27_11h40.18.591,StroopExp,2022.2.5,60.16231793
b2,stroop_trial_condtions/b2.xlsx,0.488971465,1,incongruent,BLUE,red,a,distractors/4.wav,,,,,0,1,1,1,0,12,12,29,608.5867499,,a,1,1.5149151,P24,2023-06-27_11h40.18.591,StroopExp,2022.2.5,60.16231793
b2,stroop_trial_condtions/b2.xlsx,0.666141953,1,congruent,RED,red,a,distractors/2.wav,,,,,0,1,1,1,0,13,13,3,613.0978558,615.0975372,a,1,1.135661,P24,2023-06-27_11h40.18.591,StroopExp,2022.2.5,60.16231793
b2,stroop_trial_condtions/b2.xlsx,0.067305336,1,incongruent,BLUE,yellow,f,distractors/3.wav,,,,,0,1,1,1,0,14,14,26,617.6140413,,f,1,1.9030658,P24,2023-06-27_11h40.18.591,StroopExp,2022.2.5,60.16231793
b2,stroop_trial_condtions/b2.xlsx,0.04164908,1,incongruent,RED,yellow,f,distractors/4.wav,,,,,0,1,1,1,0,15,15,2,622.1118538,624.1111207,f,1,1.6781087,P24,2023-06-27_11h40.18.591,StroopExp,2022.2.5,60.16231793
b2,stroop_trial_condtions/b2.xlsx,0.733185206,1,incongruent,GREEN,blue,d,distractors/4.wav,,,,,0,1,1,1,0,16,16,28,626.6272093,628.6259758,d,1,1.6019854,P24,2023-06-27_11h40.18.591,StroopExp,2022.2.5,60.16231793
b2,stroop_trial_condtions/b2.xlsx,0.128195372,1,incongruent,YELLOW,red,a,distractors/3.wav,,,,,0,1,1,1,0,17,17,35,631.1089513,633.1080754,a,1,1.5826926,P24,2023-06-27_11h40.18.591,StroopExp,2022.2.5,60.16231793
b2,stroop_trial_condtions/b2.xlsx,0.629589964,1,congruent,RED,red,a,distractors/2.wav,,,,,0,1,1,1,0,18,18,11,635.6407964,637.6401599,a,1,1.0561829,P24,2023-06-27_11h40.18.591,StroopExp,2022.2.5,60.16231793
b2,stroop_trial_condtions/b2.xlsx,0.231567411,1,congruent,GREEN,green,s,distractors/4.wav,,,,,0,1,1,1,0,19,19,8,640.1389254,642.1386355,None,0,,P24,2023-06-27_11h40.18.591,StroopExp,2022.2.5,60.16231793
b2,stroop_trial_condtions/b2.xlsx,0.090889572,1,congruent,RED,red,a,distractors/3.wav,,,,,0,1,1,1,0,20,20,41,644.6379876,646.6371678,a,1,1.29372,P24,2023-06-27_11h40.18.591,StroopExp,2022.2.5,60.16231793
b2,stroop_trial_condtions/b2.xlsx,0.144418396,1,congruent,GREEN,green,s,distractors/1.wav,,,,,0,1,1,1,0,21,21,43,649.1206059,651.1206677,s,1,1.4465702,P24,2023-06-27_11h40.18.591,StroopExp,2022.2.5,60.16231793
b2,stroop_trial_condtions/b2.xlsx,0.108398141,1,incongruent,RED,green,s,distractors/1.wav,,,,,0,1,1,1,0,22,22,14,653.6040033,655.6041822,s,1,1.321573,P24,2023-06-27_11h40.18.591,StroopExp,2022.2.5,60.16231793
b2,stroop_trial_condtions/b2.xlsx,0.796267692,1,incongruent,RED,blue,d,distractors/4.wav,,,,,0,1,1,1,0,23,23,46,658.0995744,660.099105,None,0,,P24,2023-06-27_11h40.18.591,StroopExp,2022.2.5,60.16231793
b2,stroop_trial_condtions/b2.xlsx,0.828978616,1,incongruent,RED,yellow,f,distractors/4.wav,,,,,0,1,1,1,0,24,24,31,662.5979081,664.5977829,f,1,1.3856419,P24,2023-06-27_11h40.18.591,StroopExp,2022.2.5,60.16231793
b2,stroop_trial_condtions/b2.xlsx,0.838430071,1,congruent,RED,red,a,distractors/1.wav,,,,,0,1,1,1,0,25,25,25,667.1133656,669.1125032,a,1,1.1503489,P24,2023-06-27_11h40.18.591,StroopExp,2022.2.5,60.16231793
b2,stroop_trial_condtions/b2.xlsx,0.361479091,1,congruent,GREEN,green,s,distractors/1.wav,,,,,0,1,1,1,0,26,26,17,671.6286042,673.6277198,s,1,1.2524021,P24,2023-06-27_11h40.18.591,StroopExp,2022.2.5,60.16231793
b2,stroop_trial_condtions/b2.xlsx,0.211743172,1,congruent,YELLOW,yellow,f,distractors/2.wav,,,,,0,1,1,1,0,27,27,38,676.1260127,678.1261662,f,1,1.1117771,P24,2023-06-27_11h40.18.591,StroopExp,2022.2.5,60.16231793
b2,stroop_trial_condtions/b2.xlsx,0.814062715,1,congruent,BLUE,blue,d,distractors/2.wav,,,,,0,1,1,1,0,28,28,36,680.6423247,682.6416972,d,1,1.311272,P24,2023-06-27_11h40.18.591,StroopExp,2022.2.5,60.16231793
b2,stroop_trial_condtions/b2.xlsx,0.483274464,1,congruent,YELLOW,yellow,f,distractors/1.wav,,,,,0,1,1,1,0,29,29,24,685.1408507,,f,1,1.2761114,P24,2023-06-27_11h40.18.591,StroopExp,2022.2.5,60.16231793
b2,stroop_trial_condtions/b2.xlsx,0.329333187,1,incongruent,YELLOW,green,s,distractors/2.wav,,,,,0,1,1,1,0,30,30,6,689.6558277,691.6549694,s,1,1.3168118,P24,2023-06-27_11h40.18.591,StroopExp,2022.2.5,60.16231793
b2,stroop_trial_condtions/b2.xlsx,0.324070625,1,congruent,YELLOW,yellow,f,distractors/3.wav,,,,,0,1,1,1,0,31,31,15,694.1545235,696.1549259,f,1,1.2051855,P24,2023-06-27_11h40.18.591,StroopExp,2022.2.5,60.16231793
b2,stroop_trial_condtions/b2.xlsx,0.858613787,1,incongruent,YELLOW,blue,d,distractors/3.wav,,,,,0,1,1,1,0,32,32,44,698.6549506,700.6547757,d,1,1.6880571,P24,2023-06-27_11h40.18.591,StroopExp,2022.2.5,60.16231793
b2,stroop_trial_condtions/b2.xlsx,0.196366522,1,incongruent,GREEN,red,a,distractors/1.wav,,,,,0,1,1,1,0,33,33,9,703.1347478,705.1340578,a,1,1.5162991,P24,2023-06-27_11h40.18.591,StroopExp,2022.2.5,60.16231793
b2,stroop_trial_condtions/b2.xlsx,0.330833954,1,incongruent,BLUE,yellow,f,distractors/4.wav,,,,,0,1,1,1,0,34,34,5,707.6496817,709.6490518,f,1,1.7214711,P24,2023-06-27_11h40.18.591,StroopExp,2022.2.5,60.16231793
b2,stroop_trial_condtions/b2.xlsx,0.522476173,1,incongruent,RED,blue,d,distractors/1.wav,,,,,0,1,1,1,0,35,35,20,712.164823,714.1641621,d,1,1.343106,P24,2023-06-27_11h40.18.591,StroopExp,2022.2.5,60.16231793
b2,stroop_trial_condtions/b2.xlsx,0.034332485,1,incongruent,YELLOW,red,a,distractors/2.wav,,,,,0,1,1,1,0,36,36,13,716.663518,718.6627871,a,1,1.6302806,P24,2023-06-27_11h40.18.591,StroopExp,2022.2.5,60.16231793
b2,stroop_trial_condtions/b2.xlsx,0.295023129,1,incongruent,BLUE,red,a,distractors/1.wav,,,,,0,1,1,1,0,37,37,37,721.1615602,723.1608198,a,1,1.6832456,P24,2023-06-27_11h40.18.591,StroopExp,2022.2.5,60.16231793
b2,stroop_trial_condtions/b2.xlsx,0.900567422,1,congruent,BLUE,blue,d,distractors/2.wav,,,,,0,1,1,1,0,38,38,30,725.6605458,,d,1,1.2933778,P24,2023-06-27_11h40.18.591,StroopExp,2022.2.5,60.16231793
b2,stroop_trial_condtions/b2.xlsx,0.155643688,1,incongruent,YELLOW,blue,d,distractors/3.wav,,,,,0,1,1,1,0,39,39,39,730.175386,732.1749218,None,0,,P24,2023-06-27_11h40.18.591,StroopExp,2022.2.5,60.16231793
b2,stroop_trial_condtions/b2.xlsx,0.813514666,1,incongruent,GREEN,red,a,distractors/3.wav,,,,,0,1,1,1,0,40,40,40,734.6739277,736.6730808,a,1,1.399586,P24,2023-06-27_11h40.18.591,StroopExp,2022.2.5,60.16231793
b2,stroop_trial_condtions/b2.xlsx,0.531759185,1,congruent,YELLOW,yellow,f,distractors/2.wav,,,,,0,1,1,1,0,41,41,34,739.1888976,741.1885038,f,1,1.3022853,P24,2023-06-27_11h40.18.591,StroopExp,2022.2.5,60.16231793
b2,stroop_trial_condtions/b2.xlsx,0.966821302,1,congruent,BLUE,blue,d,distractors/2.wav,,,,,0,1,1,1,0,42,42,21,743.7055774,745.7052952,d,1,1.1374499,P24,2023-06-27_11h40.18.591,StroopExp,2022.2.5,60.16231793
b2,stroop_trial_condtions/b2.xlsx,0.011991742,1,congruent,RED,red,a,distractors/4.wav,,,,,0,1,1,1,0,43,43,42,748.1888441,750.1886169,a,1,1.5369618,P24,2023-06-27_11h40.18.591,StroopExp,2022.2.5,60.16231793
b2,stroop_trial_condtions/b2.xlsx,0.88570862,1,congruent,BLUE,blue,d,distractors/1.wav,,,,,0,1,1,1,0,44,44,16,752.7014052,,d,1,1.2123186,P24,2023-06-27_11h40.18.591,StroopExp,2022.2.5,60.16231793
b2,stroop_trial_condtions/b2.xlsx,0.973471425,1,congruent,BLUE,blue,d,distractors/2.wav,,,,,0,1,1,1,0,45,45,1,757.2165053,,d,1,1.0791048,P24,2023-06-27_11h40.18.591,StroopExp,2022.2.5,60.16231793
b2,stroop_trial_condtions/b2.xlsx,0.087696882,1,incongruent,RED,green,s,distractors/3.wav,,,,,0,1,1,1,0,46,46,47,761.7318513,,s,1,1.4919608,P24,2023-06-27_11h40.18.591,StroopExp,2022.2.5,60.16231793
b2,stroop_trial_condtions/b2.xlsx,0.713195007,1,congruent,GREEN,green,s,distractors/2.wav,,,,,0,1,1,1,0,47,47,10,766.2466321,768.2457818,s,1,1.3095057,P24,2023-06-27_11h40.18.591,StroopExp,2022.2.5,60.16231793
b3,stroop_trial_condtions/b1.xlsx,0.01936095,0,incongruent,YELLOW,green,s,distractors/silence.wav,,,,,0,2,2,2,0,0,0,2,859.4818684,861.4814184,s,1,1.3553095,P24,2023-06-27_11h40.18.591,StroopExp,2022.2.5,60.16231793
b3,stroop_trial_condtions/b1.xlsx,0.451597903,0,congruent,BLUE,blue,d,distractors/silence.wav,,,,,0,2,2,2,0,1,1,22,863.9970967,865.9965734,d,1,1.2948047,P24,2023-06-27_11h40.18.591,StroopExp,2022.2.5,60.16231793
b3,stroop_trial_condtions/b1.xlsx,0.004767374,0,incongruent,RED,green,s,distractors/silence.wav,,,,,0,2,2,2,0,2,2,14,868.4957441,870.4948589,s,1,1.3301988,P24,2023-06-27_11h40.18.591,StroopExp,2022.2.5,60.16231793
b3,stroop_trial_condtions/b1.xlsx,0.153196184,0,incongruent,YELLOW,green,s,distractors/silence.wav,,,,,0,2,2,2,0,3,3,31,873.0103061,875.0099062,s,1,1.3054968,P24,2023-06-27_11h40.18.591,StroopExp,2022.2.5,60.16231793
b3,stroop_trial_condtions/b1.xlsx,0.976942146,0,congruent,BLUE,blue,d,distractors/silence.wav,,,,,0,2,2,2,0,4,4,13,877.5257327,879.5248605,d,1,1.3244406,P24,2023-06-27_11h40.18.591,StroopExp,2022.2.5,60.16231793
b3,stroop_trial_condtions/b1.xlsx,0.419315371,0,congruent,RED,red,a,distractors/silence.wav,,,,,0,2,2,2,0,5,5,38,882.040503,884.0407845,a,1,1.123468,P24,2023-06-27_11h40.18.591,StroopExp,2022.2.5,60.16231793
b3,stroop_trial_condtions/b1.xlsx,0.027168618,0,incongruent,RED,yellow,f,distractors/silence.wav,,,,,0,2,2,2,0,6,6,27,886.5242374,888.523995,f,1,1.3294253,P24,2023-06-27_11h40.18.591,StroopExp,2022.2.5,60.16231793
b3,stroop_trial_condtions/b1.xlsx,0.971858016,0,congruent,RED,red,a,distractors/silence.wav,,,,,0,2,2,2,0,7,7,0,891.0240905,,a,1,1.1610173,P24,2023-06-27_11h40.18.591,StroopExp,2022.2.5,60.16231793
b3,stroop_trial_condtions/b1.xlsx,0.733681542,0,incongruent,BLUE,green,s,distractors/silence.wav,,,,,0,2,2,2,0,8,8,15,895.5363144,897.5354145,s,1,1.4013467,P24,2023-06-27_11h40.18.591,StroopExp,2022.2.5,60.16231793
b3,stroop_trial_condtions/b1.xlsx,0.251874896,0,incongruent,GREEN,blue,d,distractors/silence.wav,,,,,0,2,2,2,0,9,9,37,900.0512639,902.0506868,d,1,1.5565613,P24,2023-06-27_11h40.18.591,StroopExp,2022.2.5,60.16231793
b3,stroop_trial_condtions/b1.xlsx,0.8328021,0,incongruent,GREEN,red,a,distractors/silence.wav,,,,,0,2,2,2,0,10,10,41,904.5663355,906.5659934,a,1,1.4500984,P24,2023-06-27_11h40.18.591,StroopExp,2022.2.5,60.16231793
b3,stroop_trial_condtions/b1.xlsx,0.256932032,0,congruent,BLUE,blue,d,distractors/silence.wav,,,,,0,2,2,2,0,11,11,30,909.0816104,911.081545,d,1,1.282243,P24,2023-06-27_11h40.18.591,StroopExp,2022.2.5,60.16231793
b3,stroop_trial_condtions/b1.xlsx,0.077117098,0,incongruent,BLUE,red,a,distractors/silence.wav,,,,,0,2,2,2,0,12,12,35,913.5964557,915.5962472,a,1,1.4111522,P24,2023-06-27_11h40.18.591,StroopExp,2022.2.5,60.16231793
b3,stroop_trial_condtions/b1.xlsx,0.249190077,0,congruent,YELLOW,yellow,f,distractors/silence.wav,,,,,0,2,2,2,0,13,13,16,918.0954382,,f,1,1.1896151,P24,2023-06-27_11h40.18.591,StroopExp,2022.2.5,60.16231793
b3,stroop_trial_condtions/b1.xlsx,0.542994022,0,congruent,YELLOW,yellow,f,distractors/silence.wav,,,,,0,2,2,2,0,14,14,28,922.6104001,924.6098388,f,1,1.4367047,P24,2023-06-27_11h40.18.591,StroopExp,2022.2.5,60.16231793
b3,stroop_trial_condtions/b1.xlsx,0.072914577,0,congruent,BLUE,blue,d,distractors/silence.wav,,,,,0,2,2,2,0,15,15,3,927.1252663,929.124951,d,1,1.3144503,P24,2023-06-27_11h40.18.591,StroopExp,2022.2.5,60.16231793
b3,stroop_trial_condtions/b1.xlsx,0.667196906,0,incongruent,RED,green,s,distractors/silence.wav,,,,,0,2,2,2,0,16,16,36,931.6414165,933.6417203,s,1,1.7425023,P24,2023-06-27_11h40.18.591,StroopExp,2022.2.5,60.16231793
b3,stroop_trial_condtions/b1.xlsx,0.983636333,0,incongruent,RED,yellow,f,distractors/silence.wav,,,,,0,2,2,2,0,17,17,10,936.1416335,938.141654,f,1,1.6600486,P24,2023-06-27_11h40.18.591,StroopExp,2022.2.5,60.16231793
b3,stroop_trial_condtions/b1.xlsx,0.543070637,0,incongruent,BLUE,yellow,f,distractors/silence.wav,,,,,0,2,2,2,0,18,18,1,940.6378029,,f,1,1.7839852,P24,2023-06-27_11h40.18.591,StroopExp,2022.2.5,60.16231793
b3,stroop_trial_condtions/b1.xlsx,0.63243718,0,incongruent,RED,blue,d,distractors/silence.wav,,,,,0,2,2,2,0,19,19,19,945.152375,947.1518027,None,0,,P24,2023-06-27_11h40.18.591,StroopExp,2022.2.5,60.16231793
b3,stroop_trial_condtions/b1.xlsx,0.493018261,0,congruent,BLUE,blue,d,distractors/silence.wav,,,,,0,2,2,2,0,20,20,7,949.6514116,,d,1,1.0721086,P24,2023-06-27_11h40.18.591,StroopExp,2022.2.5,60.16231793
b3,stroop_trial_condtions/b1.xlsx,0.625212421,0,congruent,GREEN,green,s,distractors/silence.wav,,,,,0,2,2,2,0,21,21,24,954.1668779,,s,1,1.605204,P24,2023-06-27_11h40.18.591,StroopExp,2022.2.5,60.16231793
b3,stroop_trial_condtions/b1.xlsx,0.579491601,0,congruent,RED,red,a,distractors/silence.wav,,,,,0,2,2,2,0,22,22,47,958.6819035,,a,1,1.1031758,P24,2023-06-27_11h40.18.591,StroopExp,2022.2.5,60.16231793
b3,stroop_trial_condtions/b1.xlsx,0.199393364,0,congruent,YELLOW,yellow,f,distractors/silence.wav,,,,,0,2,2,2,0,23,23,23,963.1968436,,f,1,1.1857078,P24,2023-06-27_11h40.18.591,StroopExp,2022.2.5,60.16231793
b3,stroop_trial_condtions/b1.xlsx,0.68696849,0,congruent,YELLOW,yellow,f,distractors/silence.wav,,,,,0,2,2,2,0,24,24,45,967.7116656,969.7110009,f,1,1.3056455,P24,2023-06-27_11h40.18.591,StroopExp,2022.2.5,60.16231793
b3,stroop_trial_condtions/b1.xlsx,0.922953448,0,congruent,RED,red,a,distractors/silence.wav,,,,,0,2,2,2,0,25,25,40,972.2106502,,a,1,1.102547,P24,2023-06-27_11h40.18.591,StroopExp,2022.2.5,60.16231793
b3,stroop_trial_condtions/b1.xlsx,0.660435133,0,congruent,GREEN,green,s,distractors/silence.wav,,,,,0,2,2,2,0,26,26,4,976.7256022,978.7251472,s,1,1.1424961,P24,2023-06-27_11h40.18.591,StroopExp,2022.2.5,60.16231793
b3,stroop_trial_condtions/b1.xlsx,0.896952266,0,incongruent,YELLOW,blue,d,distractors/silence.wav,,,,,0,2,2,2,0,27,27,25,981.2256886,983.2256374,d,1,1.3582015,P24,2023-06-27_11h40.18.591,StroopExp,2022.2.5,60.16231793
b3,stroop_trial_condtions/b1.xlsx,0.729684234,0,incongruent,BLUE,red,a,distractors/silence.wav,,,,,0,2,2,2,0,28,28,29,985.7087549,987.7255338,a,1,1.3685221,P24,2023-06-27_11h40.18.591,StroopExp,2022.2.5,60.16231793
b3,stroop_trial_condtions/b1.xlsx,0.674408476,0,incongruent,BLUE,yellow,f,distractors/silence.wav,,,,,0,2,2,2,0,29,29,26,990.2210359,992.2207516,f,1,1.4560134,P24,2023-06-27_11h40.18.591,StroopExp,2022.2.5,60.16231793
b3,stroop_trial_condtions/b1.xlsx,0.548087945,0,congruent,YELLOW,yellow,f,distractors/silence.wav,,,,,0,2,2,2,0,30,30,32,994.7358762,996.7353713,f,1,1.1340549,P24,2023-06-27_11h40.18.591,StroopExp,2022.2.5,60.16231793
b3,stroop_trial_condtions/b1.xlsx,0.976569181,0,incongruent,YELLOW,blue,d,distractors/silence.wav,,,,,0,2,2,2,0,31,31,39,999.2517448,1001.25062,d,1,1.6213293,P24,2023-06-27_11h40.18.591,StroopExp,2022.2.5,60.16231793
b3,stroop_trial_condtions/b1.xlsx,0.939662107,0,congruent,RED,red,a,distractors/silence.wav,,,,,0,2,2,2,0,32,32,21,1003.749634,1005.749044,a,1,1.3742714,P24,2023-06-27_11h40.18.591,StroopExp,2022.2.5,60.16231793
b3,stroop_trial_condtions/b1.xlsx,0.680507855,0,incongruent,GREEN,yellow,f,distractors/silence.wav,,,,,0,2,2,2,0,33,33,33,1008.248317,1010.247433,f,1,1.2132025,P24,2023-06-27_11h40.18.591,StroopExp,2022.2.5,60.16231793
b3,stroop_trial_condtions/b1.xlsx,0.571650714,0,incongruent,YELLOW,red,a,distractors/silence.wav,,,,,0,2,2,2,0,34,34,5,1012.746737,1014.745881,a,1,1.8545166,P24,2023-06-27_11h40.18.591,StroopExp,2022.2.5,60.16231793
b3,stroop_trial_condtions/b1.xlsx,0.870893567,0,congruent,RED,red,a,distractors/silence.wav,,,,,0,2,2,2,0,35,35,9,1017.26184,,a,1,0.8892297,P24,2023-06-27_11h40.18.591,StroopExp,2022.2.5,60.16231793
b3,stroop_trial_condtions/b1.xlsx,0.401782254,0,incongruent,YELLOW,red,a,distractors/silence.wav,,,,,0,2,2,2,0,36,36,12,1021.77694,1023.776025,None,0,,P24,2023-06-27_11h40.18.591,StroopExp,2022.2.5,60.16231793
b3,stroop_trial_condtions/b1.xlsx,0.350328137,0,congruent,GREEN,green,s,distractors/silence.wav,,,,,0,2,2,2,0,37,37,20,1026.276292,1028.276014,s,1,1.3536133,P24,2023-06-27_11h40.18.591,StroopExp,2022.2.5,60.16231793
b3,stroop_trial_condtions/b1.xlsx,0.870406961,0,congruent,YELLOW,yellow,f,distractors/silence.wav,,,,,0,2,2,2,0,38,38,11,1030.759695,1032.75961,f,1,1.4099092,P24,2023-06-27_11h40.18.591,StroopExp,2022.2.5,60.16231793
b3,stroop_trial_condtions/b1.xlsx,0.237396997,0,incongruent,GREEN,blue,d,distractors/silence.wav,,,,,0,2,2,2,0,39,39,18,1035.25599,,d,1,1.5638176,P24,2023-06-27_11h40.18.591,StroopExp,2022.2.5,60.16231793
b3,stroop_trial_condtions/b1.xlsx,0.744564924,0,congruent,GREEN,green,s,distractors/silence.wav,,,,,0,2,2,2,0,40,40,42,1039.77085,1041.770115,s,1,1.3244898,P24,2023-06-27_11h40.18.591,StroopExp,2022.2.5,60.16231793
b3,stroop_trial_condtions/b1.xlsx,0.708976038,0,congruent,GREEN,green,s,distractors/silence.wav,,,,,0,2,2,2,0,41,41,8,1044.28577,1046.284944,s,1,1.0214516,P24,2023-06-27_11h40.18.591,StroopExp,2022.2.5,60.16231793
b3,stroop_trial_condtions/b1.xlsx,0.647841101,0,incongruent,GREEN,red,a,distractors/silence.wav,,,,,0,2,2,2,0,42,42,6,1048.800946,1050.800441,a,1,1.4443445,P24,2023-06-27_11h40.18.591,StroopExp,2022.2.5,60.16231793
b3,stroop_trial_condtions/b1.xlsx,0.191332161,0,congruent,GREEN,green,s,distractors/silence.wav,,,,,0,2,2,2,0,43,43,43,1053.3164,1055.315526,s,1,1.3826563,P24,2023-06-27_11h40.18.591,StroopExp,2022.2.5,60.16231793
b3,stroop_trial_condtions/b1.xlsx,0.583196525,0,congruent,BLUE,blue,d,distractors/silence.wav,,,,,0,2,2,2,0,44,44,44,1057.831666,,d,1,1.4023526,P24,2023-06-27_11h40.18.591,StroopExp,2022.2.5,60.16231793
b3,stroop_trial_condtions/b1.xlsx,0.935097843,0,incongruent,RED,blue,d,distractors/silence.wav,,,,,0,2,2,2,0,45,45,17,1062.34643,1064.345598,d,1,1.6934962,P24,2023-06-27_11h40.18.591,StroopExp,2022.2.5,60.16231793
b3,stroop_trial_condtions/b1.xlsx,0.830948331,0,incongruent,BLUE,green,s,distractors/silence.wav,,,,,0,2,2,2,0,46,46,46,1066.861884,,s,1,1.5840683,P24,2023-06-27_11h40.18.591,StroopExp,2022.2.5,60.16231793
b3,stroop_trial_condtions/b1.xlsx,0.936669537,0,incongruent,GREEN,yellow,f,distractors/silence.wav,,,,,0,2,2,2,0,47,47,34,1071.378195,,f,1,1.4646153,P24,2023-06-27_11h40.18.591,StroopExp,2022.2.5,60.16231793
b4,stroop_trial_condtions/b3.xlsx,0.304890161,1,incongruent,BLUE,green,s,distractors/1.wav,,,,,0,3,3,3,0,0,0,21,1153.94919,1155.948339,s,1,1.3838377,P24,2023-06-27_11h40.18.591,StroopExp,2022.2.5,60.16231793
b4,stroop_trial_condtions/b3.xlsx,0.469997319,1,incongruent,YELLOW,red,a,distractors/2.wav,,,,,0,3,3,3,0,1,1,34,1158.4642,1160.463188,a,1,1.2117594,P24,2023-06-27_11h40.18.591,StroopExp,2022.2.5,60.16231793
b4,stroop_trial_condtions/b3.xlsx,0.512136417,1,congruent,BLUE,blue,d,distractors/3.wav,,,,,0,3,3,3,0,2,2,40,1162.979027,1164.978885,d,1,1.4341847,P24,2023-06-27_11h40.18.591,StroopExp,2022.2.5,60.16231793
b4,stroop_trial_condtions/b3.xlsx,0.091035715,1,incongruent,BLUE,yellow,f,distractors/3.wav,,,,,0,3,3,3,0,3,3,7,1167.477885,1169.478264,f,1,1.1616343,P24,2023-06-27_11h40.18.591,StroopExp,2022.2.5,60.16231793
b4,stroop_trial_condtions/b3.xlsx,0.999512659,1,incongruent,GREEN,yellow,f,distractors/1.wav,,,,,0,3,3,3,0,4,4,39,1171.961702,1173.961961,f,1,1.0359169,P24,2023-06-27_11h40.18.591,StroopExp,2022.2.5,60.16231793
b4,stroop_trial_condtions/b3.xlsx,0.289836119,1,incongruent,GREEN,yellow,f,distractors/2.wav,,,,,0,3,3,3,0,5,5,20,1176.461672,,f,1,0.7875348,P24,2023-06-27_11h40.18.591,StroopExp,2022.2.5,60.16231793
b4,stroop_trial_condtions/b3.xlsx,0.965444972,1,congruent,BLUE,blue,d,distractors/2.wav,,,,,0,3,3,3,0,6,6,2,1180.973358,1182.972656,d,1,1.3082761,P24,2023-06-27_11h40.18.591,StroopExp,2022.2.5,60.16231793
b4,stroop_trial_condtions/b3.xlsx,0.010072896,1,congruent,RED,red,a,distractors/4.wav,,,,,0,3,3,3,0,7,7,37,1185.471766,1187.471215,a,1,0.9988114,P24,2023-06-27_11h40.18.591,StroopExp,2022.2.5,60.16231793
b4,stroop_trial_condtions/b3.xlsx,0.139842966,1,congruent,GREEN,green,s,distractors/2.wav,,,,,0,3,3,3,0,8,8,8,1189.986778,1191.986021,s,1,1.2988859,P24,2023-06-27_11h40.18.591,StroopExp,2022.2.5,60.16231793
b4,stroop_trial_condtions/b3.xlsx,0.801341495,1,incongruent,BLUE,yellow,f,distractors/4.wav,,,,,0,3,3,3,0,9,9,4,1194.484887,1196.484357,f,1,1.3188228,P24,2023-06-27_11h40.18.591,StroopExp,2022.2.5,60.16231793
b4,stroop_trial_condtions/b3.xlsx,0.214405789,1,incongruent,GREEN,red,a,distractors/4.wav,,,,,0,3,3,3,0,10,10,29,1198.983938,,a,1,1.4014772,P24,2023-06-27_11h40.18.591,StroopExp,2022.2.5,60.16231793
b4,stroop_trial_condtions/b3.xlsx,0.56899076,1,congruent,BLUE,blue,d,distractors/3.wav,,,,,0,3,3,3,0,11,11,28,1203.498649,1205.498257,d,1,1.0772234,P24,2023-06-27_11h40.18.591,StroopExp,2022.2.5,60.16231793
b4,stroop_trial_condtions/b3.xlsx,0.055781084,1,incongruent,RED,yellow,f,distractors/4.wav,,,,,0,3,3,3,0,12,12,43,1207.997373,1209.996915,f,1,1.0832823,P24,2023-06-27_11h40.18.591,StroopExp,2022.2.5,60.16231793
b4,stroop_trial_condtions/b3.xlsx,0.217828855,1,incongruent,GREEN,blue,d,distractors/1.wav,,,,,0,3,3,3,0,13,13,44,1212.512358,1214.512256,d,1,1.3529188,P24,2023-06-27_11h40.18.591,StroopExp,2022.2.5,60.16231793
b4,stroop_trial_condtions/b3.xlsx,0.337871903,1,incongruent,RED,yellow,f,distractors/4.wav,,,,,0,3,3,3,0,14,14,19,1216.995338,1218.995588,f,1,1.0997016,P24,2023-06-27_11h40.18.591,StroopExp,2022.2.5,60.16231793
b4,stroop_trial_condtions/b3.xlsx,0.10397583,1,incongruent,BLUE,green,s,distractors/1.wav,,,,,0,3,3,3,0,15,15,47,1221.47962,1223.4756,s,1,1.314391,P24,2023-06-27_11h40.18.591,StroopExp,2022.2.5,60.16231793
b4,stroop_trial_condtions/b3.xlsx,0.457447166,1,congruent,RED,red,a,distractors/1.wav,,,,,0,3,3,3,0,16,16,41,1226.007967,1228.007356,a,1,1.05148,P24,2023-06-27_11h40.18.591,StroopExp,2022.2.5,60.16231793
b4,stroop_trial_condtions/b3.xlsx,0.017634479,1,incongruent,RED,blue,d,distractors/3.wav,,,,,0,3,3,3,0,17,17,31,1230.506469,1232.505524,d,1,1.6135119,P24,2023-06-27_11h40.18.591,StroopExp,2022.2.5,60.16231793
b4,stroop_trial_condtions/b3.xlsx,0.264144016,1,congruent,RED,red,a,distractors/2.wav,,,,,0,3,3,3,0,18,18,6,1235.005267,1237.004371,a,1,1.2199959,P24,2023-06-27_11h40.18.591,StroopExp,2022.2.5,60.16231793
b4,stroop_trial_condtions/b3.xlsx,0.504266909,1,congruent,BLUE,blue,d,distractors/2.wav,,,,,0,3,3,3,0,19,19,25,1239.503329,1241.502574,d,1,1.3124248,P24,2023-06-27_11h40.18.591,StroopExp,2022.2.5,60.16231793
b4,stroop_trial_condtions/b3.xlsx,0.794314825,1,incongruent,BLUE,red,a,distractors/1.wav,,,,,0,3,3,3,0,20,20,30,1244.001963,1246.001311,a,1,1.5231062,P24,2023-06-27_11h40.18.591,StroopExp,2022.2.5,60.16231793
b4,stroop_trial_condtions/b3.xlsx,0.425610132,1,congruent,BLUE,blue,d,distractors/4.wav,,,,,0,3,3,3,0,21,21,9,1248.500458,1250.500207,d,1,1.4226784,P24,2023-06-27_11h40.18.591,StroopExp,2022.2.5,60.16231793
b4,stroop_trial_condtions/b3.xlsx,0.801680892,1,incongruent,YELLOW,red,a,distractors/3.wav,,,,,0,3,3,3,0,22,22,35,1252.998956,1254.998773,a,1,1.5241348,P24,2023-06-27_11h40.18.591,StroopExp,2022.2.5,60.16231793
b4,stroop_trial_condtions/b3.xlsx,0.507803195,1,congruent,YELLOW,yellow,f,distractors/3.wav,,,,,0,3,3,3,0,23,23,45,1257.497112,1259.496718,f,1,1.2279977,P24,2023-06-27_11h40.18.591,StroopExp,2022.2.5,60.16231793
b4,stroop_trial_condtions/b3.xlsx,0.253236555,1,congruent,GREEN,green,s,distractors/1.wav,,,,,0,3,3,3,0,24,24,10,1262.012573,1264.013008,s,1,1.3346677,P24,2023-06-27_11h40.18.591,StroopExp,2022.2.5,60.16231793
b4,stroop_trial_condtions/b3.xlsx,0.585762683,1,congruent,GREEN,green,s,distractors/2.wav,,,,,0,3,3,3,0,25,25,18,1266.496483,1268.496408,s,1,1.3375721,P24,2023-06-27_11h40.18.591,StroopExp,2022.2.5,60.16231793
b4,stroop_trial_condtions/b3.xlsx,0.490953462,1,congruent,GREEN,green,s,distractors/4.wav,,,,,0,3,3,3,0,26,26,1,1270.975996,1272.975676,s,1,1.1354704,P24,2023-06-27_11h40.18.591,StroopExp,2022.2.5,60.16231793
b4,stroop_trial_condtions/b3.xlsx,0.871165656,1,congruent,YELLOW,yellow,f,distractors/1.wav,,,,,0,3,3,3,0,27,27,11,1275.491077,1277.490592,f,1,1.304941,P24,2023-06-27_11h40.18.591,StroopExp,2022.2.5,60.16231793
b4,stroop_trial_condtions/b3.xlsx,0.854349554,1,congruent,YELLOW,yellow,f,distractors/3.wav,,,,,0,3,3,3,0,28,28,27,1280.006254,1282.005775,f,1,1.1969547,P24,2023-06-27_11h40.18.591,StroopExp,2022.2.5,60.16231793
b4,stroop_trial_condtions/b3.xlsx,0.629652757,1,incongruent,GREEN,red,a,distractors/4.wav,,,,,0,3,3,3,0,29,29,24,1284.504907,1286.504163,a,1,1.3743593,P24,2023-06-27_11h40.18.591,StroopExp,2022.2.5,60.16231793
b4,stroop_trial_condtions/b3.xlsx,0.422027805,1,incongruent,YELLOW,green,s,distractors/2.wav,,,,,0,3,3,3,0,30,30,33,1289.019707,1291.019608,s,1,1.8535648,P24,2023-06-27_11h40.18.591,StroopExp,2022.2.5,60.16231793
b4,stroop_trial_condtions/b3.xlsx,0.229480302,1,congruent,YELLOW,yellow,f,distractors/3.wav,,,,,0,3,3,3,0,31,31,0,1293.534975,1295.535004,f,1,1.2336799,P24,2023-06-27_11h40.18.591,StroopExp,2022.2.5,60.16231793
b4,stroop_trial_condtions/b3.xlsx,0.509195284,1,congruent,RED,red,a,distractors/3.wav,,,,,0,3,3,3,0,32,32,23,1298.050311,1300.049951,a,1,1.6887869,P24,2023-06-27_11h40.18.591,StroopExp,2022.2.5,60.16231793
b4,stroop_trial_condtions/b3.xlsx,0.759150938,1,congruent,YELLOW,yellow,f,distractors/3.wav,,,,,0,3,3,3,0,33,33,36,1302.56549,1304.5646,f,1,1.26063,P24,2023-06-27_11h40.18.591,StroopExp,2022.2.5,60.16231793
b4,stroop_trial_condtions/b3.xlsx,0.552411576,1,incongruent,GREEN,blue,d,distractors/4.wav,,,,,0,3,3,3,0,34,34,15,1307.063574,1309.063422,d,1,1.4015021,P24,2023-06-27_11h40.18.591,StroopExp,2022.2.5,60.16231793
b4,stroop_trial_condtions/b3.xlsx,0.521565887,1,incongruent,YELLOW,blue,d,distractors/3.wav,,,,,0,3,3,3,0,35,35,14,1311.563893,1313.563785,d,1,1.6580095,P24,2023-06-27_11h40.18.591,StroopExp,2022.2.5,60.16231793
b4,stroop_trial_condtions/b3.xlsx,0.22157821,1,incongruent,RED,green,s,distractors/4.wav,,,,,0,3,3,3,0,36,36,26,1316.047097,1318.043897,s,1,1.3337671,P24,2023-06-27_11h40.18.591,StroopExp,2022.2.5,60.16231793
b4,stroop_trial_condtions/b3.xlsx,0.388628644,1,congruent,RED,red,a,distractors/4.wav,,,,,0,3,3,3,0,37,37,17,1320.542498,1322.541923,a,1,1.1932989,P24,2023-06-27_11h40.18.591,StroopExp,2022.2.5,60.16231793
b4,stroop_trial_condtions/b3.xlsx,0.600008433,1,congruent,BLUE,blue,d,distractors/3.wav,,,,,0,3,3,3,0,38,38,42,1325.057677,1327.057063,d,1,1.2781969,P24,2023-06-27_11h40.18.591,StroopExp,2022.2.5,60.16231793
b4,stroop_trial_condtions/b3.xlsx,0.677170745,1,congruent,GREEN,green,s,distractors/1.wav,,,,,0,3,3,3,0,39,39,5,1329.572678,1331.572219,s,1,1.1106203,P24,2023-06-27_11h40.18.591,StroopExp,2022.2.5,60.16231793
b4,stroop_trial_condtions/b3.xlsx,0.585825436,1,incongruent,YELLOW,blue,d,distractors/2.wav,,,,,0,3,3,3,0,40,40,12,1334.088053,1336.087354,d,1,1.2921194,P24,2023-06-27_11h40.18.591,StroopExp,2022.2.5,60.16231793
b4,stroop_trial_condtions/b3.xlsx,0.927706406,1,incongruent,BLUE,red,a,distractors/1.wav,,,,,0,3,3,3,0,41,41,32,1338.586647,1340.585581,a,1,1.4073806,P24,2023-06-27_11h40.18.591,StroopExp,2022.2.5,60.16231793
b4,stroop_trial_condtions/b3.xlsx,0.468515905,1,incongruent,YELLOW,green,s,distractors/1.wav,,,,,0,3,3,3,0,42,42,3,1343.08543,,s,1,1.2666544,P24,2023-06-27_11h40.18.591,StroopExp,2022.2.5,60.16231793
b4,stroop_trial_condtions/b3.xlsx,0.6103536,1,incongruent,RED,green,s,distractors/2.wav,,,,,0,3,3,3,0,43,43,16,1347.599805,1349.599831,s,1,0.9778125,P24,2023-06-27_11h40.18.591,StroopExp,2022.2.5,60.16231793
b4,stroop_trial_condtions/b3.xlsx,0.801010583,1,incongruent,RED,blue,d,distractors/2.wav,,,,,0,3,3,3,0,44,44,13,1352.115502,1354.114598,d,1,1.217764,P24,2023-06-27_11h40.18.591,StroopExp,2022.2.5,60.16231793
b4,stroop_trial_condtions/b3.xlsx,0.488087669,1,congruent,RED,red,a,distractors/4.wav,,,,,0,3,3,3,0,45,45,38,1356.631037,1358.630939,a,1,1.1061205,P24,2023-06-27_11h40.18.591,StroopExp,2022.2.5,60.16231793
b4,stroop_trial_condtions/b3.xlsx,0.749087818,1,congruent,GREEN,green,s,distractors/2.wav,,,,,0,3,3,3,0,46,46,46,1361.114546,1363.114287,s,1,1.1217061,P24,2023-06-27_11h40.18.591,StroopExp,2022.2.5,60.16231793
b4,stroop_trial_condtions/b3.xlsx,0.741548313,1,congruent,YELLOW,yellow,f,distractors/1.wav,,,,,0,3,3,3,0,47,47,22,1365.610863,1367.610722,f,1,1.109146,P24,2023-06-27_11h40.18.591,StroopExp,2022.2.5,60.16231793
