block_number,location,Index,has_distraction,trial_type,word,color,correct_key,distraction_file_name,practice_trials_4X5.thisRepN,practice_trials_4X5.thisTrialN,practice_trials_4X5.thisN,practice_trials_4X5.thisIndex,blocks.thisRepN,blocks.thisTrialN,blocks.thisN,blocks.thisIndex,trials.thisRepN,trials.thisTrialN,trials.thisN,trials.thisIndex,key_stroop.started,key_stroop.keys,key_stroop.corr,key_stroop.rt,key_stroop.stopped,participant,date,expName,psychopyVersion,frameRate,
b1,stroop_trial_condtions/b1.xlsx,0.07711709789910381,0,incongruent,BLUE,red,a,distractors/silence.wav,,,,,0,0,0,0,0,0,0,35,253.45733860000007,a,1,0.9497090000002117,,P36,2023-07-10_14h13.22.075,StroopExp,2022.2.5,59.741795957842925,
b1,stroop_trial_condtions/b1.xlsx,0.4017822535991459,0,incongruent,YELLOW,red,a,distractors/silence.wav,,,,,0,0,0,0,0,1,1,12,257.97211589999995,a,1,0.7517503999999917,259.97188830000016,P36,2023-07-10_14h13.22.075,StroopExp,2022.2.5,59.741795957842925,
b1,stroop_trial_condtions/b1.xlsx,0.8309483305278348,0,incongruent,BLUE,green,s,distractors/silence.wav,,,,,0,0,0,0,0,2,2,46,262.4868166,s,1,1.6847600999999486,264.48654190000013,P36,2023-07-10_14h13.22.075,StroopExp,2022.2.5,59.741795957842925,
b1,stroop_trial_condtions/b1.xlsx,0.9765691810900071,0,incongruent,YELLOW,blue,d,distractors/silence.wav,,,,,0,0,0,0,0,3,3,39,267.0023338,d,1,1.037683799999968,269.0014380000001,P36,2023-07-10_14h13.22.075,StroopExp,2022.2.5,59.741795957842925,
b1,stroop_trial_condtions/b1.xlsx,0.9350978434171133,0,incongruent,RED,blue,d,distractors/silence.wav,,,,,0,0,0,0,0,4,4,17,271.50117609999995,d,1,0.9724063999999544,,P36,2023-07-10_14h13.22.075,StroopExp,2022.2.5,59.741795957842925,
b1,stroop_trial_condtions/b1.xlsx,0.8969522657404946,0,incongruent,YELLOW,blue,d,distractors/silence.wav,,,,,0,0,0,0,0,5,5,25,276.01567639999996,d,1,0.7218911999998454,278.01532710000004,P36,2023-07-10_14h13.22.075,StroopExp,2022.2.5,59.741795957842925,
b1,stroop_trial_condtions/b1.xlsx,0.4930182611236916,0,congruent,BLUE,blue,d,distractors/silence.wav,,,,,0,0,0,0,0,6,6,7,280.5158903,d,1,0.5933330999998816,282.51582700000006,P36,2023-07-10_14h13.22.075,StroopExp,2022.2.5,59.741795957842925,
b1,stroop_trial_condtions/b1.xlsx,0.5831965246907577,0,congruent,BLUE,blue,d,distractors/silence.wav,,,,,0,0,0,0,0,7,7,44,284.99943240000005,d,1,0.6357391999999891,287.0121720000001,P36,2023-07-10_14h13.22.075,StroopExp,2022.2.5,59.741795957842925,
b1,stroop_trial_condtions/b1.xlsx,0.870406961301538,0,congruent,YELLOW,yellow,f,distractors/silence.wav,,,,,0,0,0,0,0,8,8,11,289.5110965,f,1,1.0325376000000688,291.51084320000007,P36,2023-07-10_14h13.22.075,StroopExp,2022.2.5,59.741795957842925,
b1,stroop_trial_condtions/b1.xlsx,0.5716507137496009,0,incongruent,YELLOW,red,a,distractors/silence.wav,,,,,0,0,0,0,0,9,9,5,294.02671480000015,a,1,1.054457599999978,296.0256584,P36,2023-07-10_14h13.22.075,StroopExp,2022.2.5,59.741795957842925,
b1,stroop_trial_condtions/b1.xlsx,0.680507855371767,0,incongruent,GREEN,yellow,f,distractors/silence.wav,,,,,0,0,0,0,0,10,10,33,298.5412864000001,f,1,1.0668999000001804,300.5406285,P36,2023-07-10_14h13.22.075,StroopExp,2022.2.5,59.741795957842925,
b1,stroop_trial_condtions/b1.xlsx,0.922953448054004,0,congruent,RED,red,a,distractors/silence.wav,,,,,0,0,0,0,0,11,11,40,303.0399155000001,a,1,0.7192567000001873,305.039631,P36,2023-07-10_14h13.22.075,StroopExp,2022.2.5,59.741795957842925,
b1,stroop_trial_condtions/b1.xlsx,0.6478411009005055,0,incongruent,GREEN,red,a,distractors/silence.wav,,,,,0,0,0,0,0,12,12,6,307.55500300000006,a,1,0.9699825000000146,309.55440250000004,P36,2023-07-10_14h13.22.075,StroopExp,2022.2.5,59.741795957842925,
b1,stroop_trial_condtions/b1.xlsx,0.7089760381977726,0,congruent,GREEN,green,s,distractors/silence.wav,,,,,0,0,0,0,0,13,13,8,312.0530165000001,s,1,1.7325644000000011,314.05259520000016,P36,2023-07-10_14h13.22.075,StroopExp,2022.2.5,59.741795957842925,
b1,stroop_trial_condtions/b1.xlsx,0.2518748957010212,0,incongruent,GREEN,blue,d,distractors/silence.wav,,,,,0,0,0,0,0,14,14,37,316.56887040000004,d,1,1.1824304000001575,318.5681122,P36,2023-07-10_14h13.22.075,StroopExp,2022.2.5,59.741795957842925,
b1,stroop_trial_condtions/b1.xlsx,0.027168618358859753,0,incongruent,RED,yellow,f,distractors/silence.wav,,,,,0,0,0,0,0,15,15,27,321.0669252000001,f,1,0.8244472000001224,,P36,2023-07-10_14h13.22.075,StroopExp,2022.2.5,59.741795957842925,
b1,stroop_trial_condtions/b1.xlsx,0.35032813659302076,0,congruent,GREEN,green,s,distractors/silence.wav,,,,,0,0,0,0,0,16,16,20,325.5664885,None,0,,327.56641780000007,P36,2023-07-10_14h13.22.075,StroopExp,2022.2.5,59.741795957842925,
b1,stroop_trial_condtions/b1.xlsx,0.8708935669205526,0,congruent,RED,red,a,distractors/silence.wav,,,,,0,0,0,0,0,17,17,9,330.0831555000001,a,1,0.8004329000000325,332.08311979999996,P36,2023-07-10_14h13.22.075,StroopExp,2022.2.5,59.741795957842925,
b1,stroop_trial_condtions/b1.xlsx,0.6252124205445847,0,congruent,GREEN,green,s,distractors/silence.wav,,,,,0,0,0,0,0,18,18,24,334.57930150000004,s,1,0.6298417000000427,336.5788775,P36,2023-07-10_14h13.22.075,StroopExp,2022.2.5,59.741795957842925,
b1,stroop_trial_condtions/b1.xlsx,0.832802100155878,0,incongruent,GREEN,red,a,distractors/silence.wav,,,,,0,0,0,0,0,19,19,41,339.0951801,a,1,0.5219520999999077,,P36,2023-07-10_14h13.22.075,StroopExp,2022.2.5,59.741795957842925,
b1,stroop_trial_condtions/b1.xlsx,0.9769421455207146,0,congruent,BLUE,blue,d,distractors/silence.wav,,,,,0,0,0,0,0,20,20,13,343.6095249000001,d,1,1.9199800999999752,345.60847130000013,P36,2023-07-10_14h13.22.075,StroopExp,2022.2.5,59.741795957842925,
b1,stroop_trial_condtions/b1.xlsx,0.15319618406080382,0,incongruent,YELLOW,green,s,distractors/silence.wav,,,,,0,0,0,0,0,21,21,31,348.10789409999995,s,1,1.603297300000122,350.10794710000016,P36,2023-07-10_14h13.22.075,StroopExp,2022.2.5,59.741795957842925,
b1,stroop_trial_condtions/b1.xlsx,0.9718580164963233,0,congruent,RED,red,a,distractors/silence.wav,,,,,0,0,0,0,0,22,22,0,352.6066648,a,1,0.7108599000000595,354.60598489999995,P36,2023-07-10_14h13.22.075,StroopExp,2022.2.5,59.741795957842925,
b1,stroop_trial_condtions/b1.xlsx,0.45159790316989123,0,congruent,BLUE,blue,d,distractors/silence.wav,,,,,0,0,0,0,0,23,23,22,357.12282570000013,d,1,1.9008057000000917,,P36,2023-07-10_14h13.22.075,StroopExp,2022.2.5,59.741795957842925,
b1,stroop_trial_condtions/b1.xlsx,0.23739699734220088,0,incongruent,GREEN,blue,d,distractors/silence.wav,,,,,0,0,0,0,0,24,24,18,361.6368827,d,1,0.7384409999999662,363.63598519999994,P36,2023-07-10_14h13.22.075,StroopExp,2022.2.5,59.741795957842925,
b1,stroop_trial_condtions/b1.xlsx,0.004767373540519926,0,incongruent,RED,green,s,distractors/silence.wav,,,,,0,0,0,0,0,25,25,14,366.1520025000001,s,1,1.9171023000001242,368.15157540000007,P36,2023-07-10_14h13.22.075,StroopExp,2022.2.5,59.741795957842925,
b1,stroop_trial_condtions/b1.xlsx,0.41931537120590046,0,congruent,RED,red,a,distractors/silence.wav,,,,,0,0,0,0,0,26,26,38,370.66742120000015,a,1,0.7676793000000544,372.66691730000014,P36,2023-07-10_14h13.22.075,StroopExp,2022.2.5,59.741795957842925,
b1,stroop_trial_condtions/b1.xlsx,0.6671969061834688,0,incongruent,RED,green,s,distractors/silence.wav,,,,,0,0,0,0,0,27,27,36,375.1505068,s,1,1.369012800000064,377.1505066000001,P36,2023-07-10_14h13.22.075,StroopExp,2022.2.5,59.741795957842925,
b1,stroop_trial_condtions/b1.xlsx,0.0729145768917061,0,congruent,BLUE,blue,d,distractors/silence.wav,,,,,0,0,0,0,0,28,28,3,379.65038489999995,d,1,0.8504292999998597,,P36,2023-07-10_14h13.22.075,StroopExp,2022.2.5,59.741795957842925,
b1,stroop_trial_condtions/b1.xlsx,0.019360950480176498,0,incongruent,YELLOW,green,s,distractors/silence.wav,,,,,0,0,0,0,0,29,29,2,384.16326600000014,s,1,1.4618416999999226,,P36,2023-07-10_14h13.22.075,StroopExp,2022.2.5,59.741795957842925,
b1,stroop_trial_condtions/b1.xlsx,0.674408475762876,0,incongruent,BLUE,yellow,f,distractors/silence.wav,,,,,0,0,0,0,0,30,30,26,388.6776254,f,1,0.8858264999998937,390.67702700000007,P36,2023-07-10_14h13.22.075,StroopExp,2022.2.5,59.741795957842925,
b1,stroop_trial_condtions/b1.xlsx,0.7296842337577286,0,incongruent,BLUE,red,a,distractors/silence.wav,,,,,0,0,0,0,0,31,31,29,393.17593769999996,a,1,0.8827745000000959,395.1756202,P36,2023-07-10_14h13.22.075,StroopExp,2022.2.5,59.741795957842925,
b1,stroop_trial_condtions/b1.xlsx,0.7445649241064577,0,congruent,GREEN,green,s,distractors/silence.wav,,,,,0,0,0,0,0,32,32,42,397.69110090000015,s,1,1.2952342999999473,399.6903374,P36,2023-07-10_14h13.22.075,StroopExp,2022.2.5,59.741795957842925,
b1,stroop_trial_condtions/b1.xlsx,0.6869684900918854,0,congruent,YELLOW,yellow,f,distractors/silence.wav,,,,,0,0,0,0,0,33,33,45,402.1896177,f,1,0.7264179999999669,404.1887511000001,P36,2023-07-10_14h13.22.075,StroopExp,2022.2.5,59.741795957842925,
b1,stroop_trial_condtions/b1.xlsx,0.9366695365255577,0,incongruent,GREEN,yellow,f,distractors/silence.wav,,,,,0,0,0,0,0,34,34,34,406.7047602000001,f,1,1.6523646999999073,408.7042305000001,P36,2023-07-10_14h13.22.075,StroopExp,2022.2.5,59.741795957842925,
b1,stroop_trial_condtions/b1.xlsx,0.6604351330374253,0,congruent,GREEN,green,s,distractors/silence.wav,,,,,0,0,0,0,0,35,35,4,411.20330380000007,s,1,1.6177103999998508,413.20259610000005,P36,2023-07-10_14h13.22.075,StroopExp,2022.2.5,59.741795957842925,
b1,stroop_trial_condtions/b1.xlsx,0.24919007739364696,0,congruent,YELLOW,yellow,f,distractors/silence.wav,,,,,0,0,0,0,0,36,36,16,415.7017347,f,1,0.8918601000000308,417.7008015,P36,2023-07-10_14h13.22.075,StroopExp,2022.2.5,59.741795957842925,
b1,stroop_trial_condtions/b1.xlsx,0.19133216126723684,0,congruent,GREEN,green,s,distractors/silence.wav,,,,,0,0,0,0,0,37,37,43,420.20079309999994,s,1,1.6385050999999748,422.2009578000001,P36,2023-07-10_14h13.22.075,StroopExp,2022.2.5,59.741795957842925,
b1,stroop_trial_condtions/b1.xlsx,0.19939336354685822,0,congruent,YELLOW,yellow,f,distractors/silence.wav,,,,,0,0,0,0,0,38,38,23,424.6842349,f,1,0.7512656000001243,426.6845558000001,P36,2023-07-10_14h13.22.075,StroopExp,2022.2.5,59.741795957842925,
b1,stroop_trial_condtions/b1.xlsx,0.5480879446861618,0,congruent,YELLOW,yellow,f,distractors/silence.wav,,,,,0,0,0,0,0,39,39,32,429.1809422,f,1,1.0402125999999043,,P36,2023-07-10_14h13.22.075,StroopExp,2022.2.5,59.741795957842925,
b1,stroop_trial_condtions/b1.xlsx,0.5429940223524143,0,congruent,YELLOW,yellow,f,distractors/silence.wav,,,,,0,0,0,0,0,40,40,28,433.69559990000005,f,1,0.6312777999999071,435.6951411000001,P36,2023-07-10_14h13.22.075,StroopExp,2022.2.5,59.741795957842925,
b1,stroop_trial_condtions/b1.xlsx,0.7336815417486652,0,incongruent,BLUE,green,s,distractors/silence.wav,,,,,0,0,0,0,0,41,41,15,438.1940112000001,s,1,1.2370108000000073,440.1935161,P36,2023-07-10_14h13.22.075,StroopExp,2022.2.5,59.741795957842925,
b1,stroop_trial_condtions/b1.xlsx,0.5794916014066622,0,congruent,RED,red,a,distractors/silence.wav,,,,,0,0,0,0,0,42,42,47,442.69299050000006,a,1,0.7821128999999019,444.69195780000007,P36,2023-07-10_14h13.22.075,StroopExp,2022.2.5,59.741795957842925,
b1,stroop_trial_condtions/b1.xlsx,0.632437180452533,0,incongruent,RED,blue,d,distractors/silence.wav,,,,,0,0,0,0,0,43,43,19,447.19100430000015,None,0,,449.1915695000001,P36,2023-07-10_14h13.22.075,StroopExp,2022.2.5,59.741795957842925,
b1,stroop_trial_condtions/b1.xlsx,0.5430706368691302,0,incongruent,BLUE,yellow,f,distractors/silence.wav,,,,,0,0,0,0,0,44,44,1,451.68956860000014,f,1,0.7054370999999264,453.68887830000006,P36,2023-07-10_14h13.22.075,StroopExp,2022.2.5,59.741795957842925,
b1,stroop_trial_condtions/b1.xlsx,0.25693203245358776,0,congruent,BLUE,blue,d,distractors/silence.wav,,,,,0,0,0,0,0,45,45,30,456.18782450000015,d,1,1.231213499999967,458.18745720000004,P36,2023-07-10_14h13.22.075,StroopExp,2022.2.5,59.741795957842925,
b1,stroop_trial_condtions/b1.xlsx,0.9396621068767484,0,congruent,RED,red,a,distractors/silence.wav,,,,,0,0,0,0,0,46,46,21,460.7033295,a,1,0.8721487999998772,462.7022716,P36,2023-07-10_14h13.22.075,StroopExp,2022.2.5,59.741795957842925,
b1,stroop_trial_condtions/b1.xlsx,0.9836363330757953,0,incongruent,RED,yellow,f,distractors/silence.wav,,,,,0,0,0,0,0,47,47,10,465.21827910000013,f,1,1.126935999999887,467.2180859000001,P36,2023-07-10_14h13.22.075,StroopExp,2022.2.5,59.741795957842925,
b2,stroop_trial_condtions/b2.xlsx,0.14441839566692105,1,congruent,GREEN,green,s,distractors/1.wav,,,,,0,1,1,1,0,0,0,43,540.29235,s,1,1.4089252999999644,542.3140539,P36,2023-07-10_14h13.22.075,StroopExp,2022.2.5,59.741795957842925,
b2,stroop_trial_condtions/b2.xlsx,0.08769688168855672,1,incongruent,RED,green,s,distractors/3.wav,,,,,0,1,1,1,0,1,1,47,544.7917286,d,0,0.9432147999998506,,P36,2023-07-10_14h13.22.075,StroopExp,2022.2.5,59.741795957842925,
b2,stroop_trial_condtions/b2.xlsx,0.041649080139953165,1,incongruent,RED,yellow,f,distractors/4.wav,,,,,0,1,1,1,0,2,2,2,549.3062736,f,1,1.2109628000000612,551.3280734000001,P36,2023-07-10_14h13.22.075,StroopExp,2022.2.5,59.741795957842925,
b2,stroop_trial_condtions/b2.xlsx,0.3293331866279865,1,incongruent,YELLOW,green,s,distractors/2.wav,,,,,0,1,1,1,0,3,3,6,553.8048517000001,s,1,1.212303699999893,555.8044109000001,P36,2023-07-10_14h13.22.075,StroopExp,2022.2.5,59.741795957842925,
b2,stroop_trial_condtions/b2.xlsx,0.5224761727455313,1,incongruent,RED,blue,d,distractors/1.wav,,,,,0,1,1,1,0,4,4,20,558.3199218999999,d,1,1.8610191999998733,560.3192640000001,P36,2023-07-10_14h13.22.075,StroopExp,2022.2.5,59.741795957842925,
b2,stroop_trial_condtions/b2.xlsx,0.2950231286066718,1,incongruent,BLUE,red,a,distractors/1.wav,,,,,0,1,1,1,0,5,5,37,562.8191164000001,a,1,0.8278040000000146,564.8196176,P36,2023-07-10_14h13.22.075,StroopExp,2022.2.5,59.741795957842925,
b2,stroop_trial_condtions/b2.xlsx,0.7331852058029119,1,incongruent,GREEN,blue,d,distractors/4.wav,,,,,0,1,1,1,0,6,6,28,567.3030349,None,0,,569.3030001000001,P36,2023-07-10_14h13.22.075,StroopExp,2022.2.5,59.741795957842925,
b2,stroop_trial_condtions/b2.xlsx,0.3240706252403076,1,congruent,YELLOW,yellow,f,distractors/3.wav,,,,,0,1,1,1,0,7,7,15,571.7994061,f,1,0.727252000000135,,P36,2023-07-10_14h13.22.075,StroopExp,2022.2.5,59.741795957842925,
b2,stroop_trial_condtions/b2.xlsx,0.9668213022564922,1,congruent,BLUE,blue,d,distractors/2.wav,,,,,0,1,1,1,0,8,8,21,576.3141922000001,d,1,1.823185500000136,578.3135284000001,P36,2023-07-10_14h13.22.075,StroopExp,2022.2.5,59.741795957842925,
b2,stroop_trial_condtions/b2.xlsx,0.5030786504893666,1,incongruent,YELLOW,green,s,distractors/4.wav,,,,,0,1,1,1,0,9,9,19,580.8129777,s,1,1.3487658999999894,582.812264,P36,2023-07-10_14h13.22.075,StroopExp,2022.2.5,59.741795957842925,
b2,stroop_trial_condtions/b2.xlsx,0.03433248455064386,1,incongruent,YELLOW,red,a,distractors/2.wav,,,,,0,1,1,1,0,10,10,13,585.3110496,a,1,0.6841987000000245,587.3102904000001,P36,2023-07-10_14h13.22.075,StroopExp,2022.2.5,59.741795957842925,
b2,stroop_trial_condtions/b2.xlsx,0.10715468186921961,1,incongruent,BLUE,green,s,distractors/3.wav,,,,,0,1,1,1,0,11,11,33,589.8092547,s,1,1.1275387999999111,591.808977,P36,2023-07-10_14h13.22.075,StroopExp,2022.2.5,59.741795957842925,
b2,stroop_trial_condtions/b2.xlsx,0.4889714654954811,1,incongruent,BLUE,red,a,distractors/4.wav,,,,,0,1,1,1,0,12,12,29,594.3248267,a,1,0.6719504000000143,,P36,2023-07-10_14h13.22.075,StroopExp,2022.2.5,59.741795957842925,
b2,stroop_trial_condtions/b2.xlsx,0.011991741755762342,1,congruent,RED,red,a,distractors/4.wav,,,,,0,1,1,1,0,13,13,42,598.8232894000001,a,1,0.5675689000001967,600.8390689000001,P36,2023-07-10_14h13.22.075,StroopExp,2022.2.5,59.741795957842925,
b2,stroop_trial_condtions/b2.xlsx,0.3400635619663932,1,congruent,YELLOW,yellow,f,distractors/3.wav,,,,,0,1,1,1,0,14,14,12,603.3382324,f,1,1.1005494999999428,605.3373195,P36,2023-07-10_14h13.22.075,StroopExp,2022.2.5,59.741795957842925,
b2,stroop_trial_condtions/b2.xlsx,0.8384300714767312,1,congruent,RED,red,a,distractors/1.wav,,,,,0,1,1,1,0,15,15,25,607.8366779000002,a,1,0.618564699999979,609.8367678000001,P36,2023-07-10_14h13.22.075,StroopExp,2022.2.5,59.741795957842925,
b2,stroop_trial_condtions/b2.xlsx,0.9005674222221599,1,congruent,BLUE,blue,d,distractors/2.wav,,,,,0,1,1,1,0,16,16,30,612.3201161000001,d,1,1.3946982999998454,614.3201157,P36,2023-07-10_14h13.22.075,StroopExp,2022.2.5,59.741795957842925,
b2,stroop_trial_condtions/b2.xlsx,0.06502382441476195,1,incongruent,GREEN,yellow,f,distractors/1.wav,,,,,0,1,1,1,0,17,17,7,616.8201585,f,1,0.8086457000001701,,P36,2023-07-10_14h13.22.075,StroopExp,2022.2.5,59.741795957842925,
b2,stroop_trial_condtions/b2.xlsx,0.776926077509408,1,incongruent,GREEN,blue,d,distractors/4.wav,,,,,0,1,1,1,0,18,18,22,621.3152807,d,1,1.2175105999999687,623.314684,P36,2023-07-10_14h13.22.075,StroopExp,2022.2.5,59.741795957842925,
b2,stroop_trial_condtions/b2.xlsx,0.7676806241710538,1,congruent,BLUE,blue,d,distractors/3.wav,,,,,0,1,1,1,0,19,19,32,625.8307448000002,d,1,0.9942286000000422,627.8301419000001,P36,2023-07-10_14h13.22.075,StroopExp,2022.2.5,59.741795957842925,
b2,stroop_trial_condtions/b2.xlsx,0.5007983240031381,1,incongruent,BLUE,green,s,distractors/1.wav,,,,,0,1,1,1,0,20,20,18,630.345461,s,1,1.3327120000001287,632.3449035,P36,2023-07-10_14h13.22.075,StroopExp,2022.2.5,59.741795957842925,
b2,stroop_trial_condtions/b2.xlsx,0.21174317193635972,1,congruent,YELLOW,yellow,f,distractors/2.wav,,,,,0,1,1,1,0,21,21,38,634.8608112000001,f,1,0.8602906000000985,636.8601866,P36,2023-07-10_14h13.22.075,StroopExp,2022.2.5,59.741795957842925,
b2,stroop_trial_condtions/b2.xlsx,0.8857086195357853,1,congruent,BLUE,blue,d,distractors/1.wav,,,,,0,1,1,1,0,22,22,16,639.3759378999999,d,1,1.5164916000001085,641.3754611,P36,2023-07-10_14h13.22.075,StroopExp,2022.2.5,59.741795957842925,
b2,stroop_trial_condtions/b2.xlsx,0.5666506333865139,1,incongruent,GREEN,yellow,f,distractors/3.wav,,,,,0,1,1,1,0,23,23,0,643.874269,f,1,0.9305710000001,645.8737362,P36,2023-07-10_14h13.22.075,StroopExp,2022.2.5,59.741795957842925,
b2,stroop_trial_condtions/b2.xlsx,0.7962676920675457,1,incongruent,RED,blue,d,distractors/4.wav,,,,,0,1,1,1,0,24,24,46,648.3896298000001,d,1,1.8010552999999163,650.3888039,P36,2023-07-10_14h13.22.075,StroopExp,2022.2.5,59.741795957842925,
b2,stroop_trial_condtions/b2.xlsx,0.4926856322739591,1,congruent,RED,red,a,distractors/4.wav,,,,,0,1,1,1,0,25,25,27,652.8882121,a,1,0.52071449999994,654.8873010000001,P36,2023-07-10_14h13.22.075,StroopExp,2022.2.5,59.741795957842925,
b2,stroop_trial_condtions/b2.xlsx,0.8140627153069117,1,congruent,BLUE,blue,d,distractors/2.wav,,,,,0,1,1,1,0,26,26,36,657.3709905,d,1,1.2376898999998502,659.3709544,P36,2023-07-10_14h13.22.075,StroopExp,2022.2.5,59.741795957842925,
b2,stroop_trial_condtions/b2.xlsx,0.3614790911510004,1,congruent,GREEN,green,s,distractors/1.wav,,,,,0,1,1,1,0,27,27,17,661.8709439,s,1,1.253714700000046,663.8715994,P36,2023-07-10_14h13.22.075,StroopExp,2022.2.5,59.741795957842925,
b2,stroop_trial_condtions/b2.xlsx,0.12819537203794318,1,incongruent,YELLOW,red,a,distractors/3.wav,,,,,0,1,1,1,0,28,28,35,666.3660044,a,1,0.7771043000000191,668.3659117999999,P36,2023-07-10_14h13.22.075,StroopExp,2022.2.5,59.741795957842925,
b2,stroop_trial_condtions/b2.xlsx,0.23156741124673452,1,congruent,GREEN,green,s,distractors/4.wav,,,,,0,1,1,1,0,29,29,8,670.8821603,s,1,1.1093834999999217,,P36,2023-07-10_14h13.22.075,StroopExp,2022.2.5,59.741795957842925,
b2,stroop_trial_condtions/b2.xlsx,0.09088957165746492,1,congruent,RED,red,a,distractors/3.wav,,,,,0,1,1,1,0,30,30,41,675.3970362000001,a,1,0.8062851000001956,677.3964322,P36,2023-07-10_14h13.22.075,StroopExp,2022.2.5,59.741795957842925,
b2,stroop_trial_condtions/b2.xlsx,0.06730533561031782,1,incongruent,BLUE,yellow,f,distractors/3.wav,,,,,0,1,1,1,0,31,31,26,679.8961443,f,1,0.8966019999998025,,P36,2023-07-10_14h13.22.075,StroopExp,2022.2.5,59.741795957842925,
b2,stroop_trial_condtions/b2.xlsx,0.7131950070563138,1,congruent,GREEN,green,s,distractors/2.wav,,,,,0,1,1,1,0,32,32,10,684.4104799,s,1,1.1387675000000854,686.4096877000001,P36,2023-07-10_14h13.22.075,StroopExp,2022.2.5,59.741795957842925,
b2,stroop_trial_condtions/b2.xlsx,0.8135146664790234,1,incongruent,GREEN,red,a,distractors/3.wav,,,,,0,1,1,1,0,33,33,40,688.9258406,a,1,0.7175409999999829,690.9250879,P36,2023-07-10_14h13.22.075,StroopExp,2022.2.5,59.741795957842925,
b2,stroop_trial_condtions/b2.xlsx,0.4249079497252247,1,congruent,GREEN,green,s,distractors/2.wav,,,,,0,1,1,1,0,34,34,4,693.424322,s,1,1.2002707999999984,695.4236892,P36,2023-07-10_14h13.22.075,StroopExp,2022.2.5,59.741795957842925,
b2,stroop_trial_condtions/b2.xlsx,0.6295899639289376,1,congruent,RED,red,a,distractors/2.wav,,,,,0,1,1,1,0,35,35,11,697.9228272000001,a,1,0.585810199999969,699.9224561,P36,2023-07-10_14h13.22.075,StroopExp,2022.2.5,59.741795957842925,
b2,stroop_trial_condtions/b2.xlsx,0.8586137871935915,1,incongruent,YELLOW,blue,d,distractors/3.wav,,,,,0,1,1,1,0,36,36,44,702.4212215000001,d,1,1.3779437999999118,704.4216777,P36,2023-07-10_14h13.22.075,StroopExp,2022.2.5,59.741795957842925,
b2,stroop_trial_condtions/b2.xlsx,0.33083395410092575,1,incongruent,BLUE,yellow,f,distractors/4.wav,,,,,0,1,1,1,0,37,37,5,706.9050168,f,1,1.1169044999999187,708.9048705000001,P36,2023-07-10_14h13.22.075,StroopExp,2022.2.5,59.741795957842925,
b2,stroop_trial_condtions/b2.xlsx,0.5317591854488619,1,congruent,YELLOW,yellow,f,distractors/2.wav,,,,,0,1,1,1,0,38,38,34,711.4046703,f,1,1.1764175999999225,,P36,2023-07-10_14h13.22.075,StroopExp,2022.2.5,59.741795957842925,
b2,stroop_trial_condtions/b2.xlsx,0.16494802758791438,1,congruent,GREEN,green,s,distractors/4.wav,,,,,0,1,1,1,0,39,39,23,715.9165646,s,1,1.8545857999999953,717.9163383000001,P36,2023-07-10_14h13.22.075,StroopExp,2022.2.5,59.741795957842925,
b2,stroop_trial_condtions/b2.xlsx,0.828978615866739,1,incongruent,RED,yellow,f,distractors/4.wav,,,,,0,1,1,1,0,40,40,31,720.4151924000001,f,1,1.190304900000001,,P36,2023-07-10_14h13.22.075,StroopExp,2022.2.5,59.741795957842925,
b2,stroop_trial_condtions/b2.xlsx,0.15564368800765982,1,incongruent,YELLOW,blue,d,distractors/3.wav,,,,,0,1,1,1,0,41,41,39,724.9298858000001,d,1,1.3852580999998736,726.9294251,P36,2023-07-10_14h13.22.075,StroopExp,2022.2.5,59.741795957842925,
b2,stroop_trial_condtions/b2.xlsx,0.9734714245974094,1,congruent,BLUE,blue,d,distractors/2.wav,,,,,0,1,1,1,0,42,42,1,729.4290534,d,1,1.0082569000001058,,P36,2023-07-10_14h13.22.075,StroopExp,2022.2.5,59.741795957842925,
b2,stroop_trial_condtions/b2.xlsx,0.10839814050721508,1,incongruent,RED,green,s,distractors/1.wav,,,,,0,1,1,1,0,43,43,14,733.9438547000001,s,1,1.0367707000000337,735.9432257,P36,2023-07-10_14h13.22.075,StroopExp,2022.2.5,59.741795957842925,
b2,stroop_trial_condtions/b2.xlsx,0.19636652195914828,1,incongruent,GREEN,red,a,distractors/1.wav,,,,,0,1,1,1,0,44,44,9,738.4424505000001,a,1,0.8605281999998624,740.4418335000001,P36,2023-07-10_14h13.22.075,StroopExp,2022.2.5,59.741795957842925,
b2,stroop_trial_condtions/b2.xlsx,0.255397179890806,1,congruent,YELLOW,yellow,f,distractors/1.wav,,,,,0,1,1,1,0,45,45,45,742.9405246,f,1,0.7862408999999388,744.9403343,P36,2023-07-10_14h13.22.075,StroopExp,2022.2.5,59.741795957842925,
b2,stroop_trial_condtions/b2.xlsx,0.4832744640468789,1,congruent,YELLOW,yellow,f,distractors/1.wav,,,,,0,1,1,1,0,46,46,24,747.4557871000001,f,1,0.7388277999998536,749.4552644000001,P36,2023-07-10_14h13.22.075,StroopExp,2022.2.5,59.741795957842925,
b2,stroop_trial_condtions/b2.xlsx,0.6661419533997107,1,congruent,RED,red,a,distractors/2.wav,,,,,0,1,1,1,0,47,47,3,751.9557171,a,1,0.8097872000000734,753.9558432,P36,2023-07-10_14h13.22.075,StroopExp,2022.2.5,59.741795957842925,
b3,stroop_trial_condtions/b1.xlsx,0.7296842337577286,0,incongruent,BLUE,red,a,distractors/silence.wav,,,,,0,2,2,2,0,0,0,29,830.5445219,a,1,0.689987199999905,832.5438542,P36,2023-07-10_14h13.22.075,StroopExp,2022.2.5,59.741795957842925,
b3,stroop_trial_condtions/b1.xlsx,0.19939336354685822,0,congruent,YELLOW,yellow,f,distractors/silence.wav,,,,,0,2,2,2,0,1,1,23,835.0593375,f,1,0.9411459000000377,837.0586592000001,P36,2023-07-10_14h13.22.075,StroopExp,2022.2.5,59.741795957842925,
b3,stroop_trial_condtions/b1.xlsx,0.5429940223524143,0,congruent,YELLOW,yellow,f,distractors/silence.wav,,,,,0,2,2,2,0,2,2,28,839.5748906,f,1,0.7737160000001495,841.5740167,P36,2023-07-10_14h13.22.075,StroopExp,2022.2.5,59.741795957842925,
b3,stroop_trial_condtions/b1.xlsx,0.674408475762876,0,incongruent,BLUE,yellow,f,distractors/silence.wav,,,,,0,2,2,2,0,3,3,26,844.0733219,f,1,0.7135675999998057,846.0738155,P36,2023-07-10_14h13.22.075,StroopExp,2022.2.5,59.741795957842925,
b3,stroop_trial_condtions/b1.xlsx,0.07711709789910381,0,incongruent,BLUE,red,a,distractors/silence.wav,,,,,0,2,2,2,0,4,4,35,848.5899101000001,a,1,1.3705755999999383,850.5900531999999,P36,2023-07-10_14h13.22.075,StroopExp,2022.2.5,59.741795957842925,
b3,stroop_trial_condtions/b1.xlsx,0.6604351330374253,0,congruent,GREEN,green,s,distractors/silence.wav,,,,,0,2,2,2,0,5,5,4,853.0902255,s,1,1.6882566000001589,,P36,2023-07-10_14h13.22.075,StroopExp,2022.2.5,59.741795957842925,
b3,stroop_trial_condtions/b1.xlsx,0.41931537120590046,0,congruent,RED,red,a,distractors/silence.wav,,,,,0,2,2,2,0,6,6,38,857.6021400000001,a,1,0.7366182999999182,859.6011198,P36,2023-07-10_14h13.22.075,StroopExp,2022.2.5,59.741795957842925,
b3,stroop_trial_condtions/b1.xlsx,0.9350978434171133,0,incongruent,RED,blue,d,distractors/silence.wav,,,,,0,2,2,2,0,7,7,17,862.1004847,None,0,,864.0998854000001,P36,2023-07-10_14h13.22.075,StroopExp,2022.2.5,59.741795957842925,
b3,stroop_trial_condtions/b1.xlsx,0.6671969061834688,0,incongruent,RED,green,s,distractors/silence.wav,,,,,0,2,2,2,0,8,8,36,866.6158334,s,1,1.0747130000002016,,P36,2023-07-10_14h13.22.075,StroopExp,2022.2.5,59.741795957842925,
b3,stroop_trial_condtions/b1.xlsx,0.9836363330757953,0,incongruent,RED,yellow,f,distractors/silence.wav,,,,,0,2,2,2,0,9,9,10,871.1308737,a,0,1.3300987000000077,873.1299378,P36,2023-07-10_14h13.22.075,StroopExp,2022.2.5,59.741795957842925,
b3,stroop_trial_condtions/b1.xlsx,0.7445649241064577,0,congruent,GREEN,green,s,distractors/silence.wav,,,,,0,2,2,2,0,10,10,42,875.6294756000001,None,0,,877.6283298,P36,2023-07-10_14h13.22.075,StroopExp,2022.2.5,59.741795957842925,
b3,stroop_trial_condtions/b1.xlsx,0.6478411009005055,0,incongruent,GREEN,red,a,distractors/silence.wav,,,,,0,2,2,2,0,11,11,6,880.1111299,a,1,0.7533825000000434,882.1103626,P36,2023-07-10_14h13.22.075,StroopExp,2022.2.5,59.741795957842925,
b3,stroop_trial_condtions/b1.xlsx,0.5430706368691302,0,incongruent,BLUE,yellow,f,distractors/silence.wav,,,,,0,2,2,2,0,12,12,1,884.6260371,f,1,1.0146316999998817,886.6258200999999,P36,2023-07-10_14h13.22.075,StroopExp,2022.2.5,59.741795957842925,
b3,stroop_trial_condtions/b1.xlsx,0.680507855371767,0,incongruent,GREEN,yellow,f,distractors/silence.wav,,,,,0,2,2,2,0,13,13,33,889.1081387,f,1,0.8208457999999155,891.1071459000001,P36,2023-07-10_14h13.22.075,StroopExp,2022.2.5,59.741795957842925,
b3,stroop_trial_condtions/b1.xlsx,0.9765691810900071,0,incongruent,YELLOW,blue,d,distractors/silence.wav,,,,,0,2,2,2,0,14,14,39,893.6405732,None,0,,895.6407449,P36,2023-07-10_14h13.22.075,StroopExp,2022.2.5,59.741795957842925,
b3,stroop_trial_condtions/b1.xlsx,0.4930182611236916,0,congruent,BLUE,blue,d,distractors/silence.wav,,,,,0,2,2,2,0,15,15,7,898.1239686,d,1,1.0387934000000314,900.1238850999999,P36,2023-07-10_14h13.22.075,StroopExp,2022.2.5,59.741795957842925,
b3,stroop_trial_condtions/b1.xlsx,0.832802100155878,0,incongruent,GREEN,red,a,distractors/silence.wav,,,,,0,2,2,2,0,16,16,41,902.6200085000002,a,1,0.8305740999999216,904.6193175,P36,2023-07-10_14h13.22.075,StroopExp,2022.2.5,59.741795957842925,
b3,stroop_trial_condtions/b1.xlsx,0.23739699734220088,0,incongruent,GREEN,blue,d,distractors/silence.wav,,,,,0,2,2,2,0,17,17,18,907.1016562000001,d,1,1.1667995000000246,909.1014220000001,P36,2023-07-10_14h13.22.075,StroopExp,2022.2.5,59.741795957842925,
b3,stroop_trial_condtions/b1.xlsx,0.9769421455207146,0,congruent,BLUE,blue,d,distractors/silence.wav,,,,,0,2,2,2,0,18,18,13,911.6003627000001,d,1,0.7086443999999119,913.5996076,P36,2023-07-10_14h13.22.075,StroopExp,2022.2.5,59.741795957842925,
b3,stroop_trial_condtions/b1.xlsx,0.9718580164963233,0,congruent,RED,red,a,distractors/silence.wav,,,,,0,2,2,2,0,19,19,0,916.0987895,a,1,0.7140736000001198,918.0980515,P36,2023-07-10_14h13.22.075,StroopExp,2022.2.5,59.741795957842925,
b3,stroop_trial_condtions/b1.xlsx,0.2518748957010212,0,incongruent,GREEN,blue,d,distractors/silence.wav,,,,,0,2,2,2,0,20,20,37,920.6309852,d,1,1.2036478999998508,,P36,2023-07-10_14h13.22.075,StroopExp,2022.2.5,59.741795957842925,
b3,stroop_trial_condtions/b1.xlsx,0.8969522657404946,0,incongruent,YELLOW,blue,d,distractors/silence.wav,,,,,0,2,2,2,0,21,21,25,925.1456114000001,d,1,1.0628967000000102,927.1448788000001,P36,2023-07-10_14h13.22.075,StroopExp,2022.2.5,59.741795957842925,
b3,stroop_trial_condtions/b1.xlsx,0.5794916014066622,0,congruent,RED,red,a,distractors/silence.wav,,,,,0,2,2,2,0,22,22,47,929.6610261,a,1,0.7236282000001211,931.6600692000001,P36,2023-07-10_14h13.22.075,StroopExp,2022.2.5,59.741795957842925,
b3,stroop_trial_condtions/b1.xlsx,0.5831965246907577,0,congruent,BLUE,blue,d,distractors/silence.wav,,,,,0,2,2,2,0,23,23,44,934.1758693,d,1,1.5191263000001527,936.1752136000001,P36,2023-07-10_14h13.22.075,StroopExp,2022.2.5,59.741795957842925,
b3,stroop_trial_condtions/b1.xlsx,0.35032813659302076,0,congruent,GREEN,green,s,distractors/silence.wav,,,,,0,2,2,2,0,24,24,20,938.6746979000001,None,0,,940.6743663999999,P36,2023-07-10_14h13.22.075,StroopExp,2022.2.5,59.741795957842925,
b3,stroop_trial_condtions/b1.xlsx,0.15319618406080382,0,incongruent,YELLOW,green,s,distractors/silence.wav,,,,,0,2,2,2,0,25,25,31,943.1582614,s,1,0.6723107000000255,945.1583931000001,P36,2023-07-10_14h13.22.075,StroopExp,2022.2.5,59.741795957842925,
b3,stroop_trial_condtions/b1.xlsx,0.019360950480176498,0,incongruent,YELLOW,green,s,distractors/silence.wav,,,,,0,2,2,2,0,26,26,2,947.6412183000001,s,1,0.7341385999998238,949.6542350999999,P36,2023-07-10_14h13.22.075,StroopExp,2022.2.5,59.741795957842925,
b3,stroop_trial_condtions/b1.xlsx,0.5716507137496009,0,incongruent,YELLOW,red,a,distractors/silence.wav,,,,,0,2,2,2,0,27,27,5,952.1533863000001,a,1,0.7609939999999824,954.1525504,P36,2023-07-10_14h13.22.075,StroopExp,2022.2.5,59.741795957842925,
b3,stroop_trial_condtions/b1.xlsx,0.9366695365255577,0,incongruent,GREEN,yellow,f,distractors/silence.wav,,,,,0,2,2,2,0,28,28,34,956.6684071000001,f,1,0.6606080999999904,958.6677119,P36,2023-07-10_14h13.22.075,StroopExp,2022.2.5,59.741795957842925,
b3,stroop_trial_condtions/b1.xlsx,0.4017822535991459,0,incongruent,YELLOW,red,a,distractors/silence.wav,,,,,0,2,2,2,0,29,29,12,961.1833615000002,a,1,0.9776922999999442,963.1827981,P36,2023-07-10_14h13.22.075,StroopExp,2022.2.5,59.741795957842925,
b3,stroop_trial_condtions/b1.xlsx,0.870406961301538,0,congruent,YELLOW,yellow,f,distractors/silence.wav,,,,,0,2,2,2,0,30,30,11,965.6816138,f,1,0.8677494000000934,967.6812622000001,P36,2023-07-10_14h13.22.075,StroopExp,2022.2.5,59.741795957842925,
b3,stroop_trial_condtions/b1.xlsx,0.6869684900918854,0,congruent,YELLOW,yellow,f,distractors/silence.wav,,,,,0,2,2,2,0,31,31,45,970.1801795,f,1,0.9061369999999442,972.1799093000001,P36,2023-07-10_14h13.22.075,StroopExp,2022.2.5,59.741795957842925,
b3,stroop_trial_condtions/b1.xlsx,0.5480879446861618,0,congruent,YELLOW,yellow,f,distractors/silence.wav,,,,,0,2,2,2,0,32,32,32,974.6954456,f,1,0.6436071000000538,976.6950724,P36,2023-07-10_14h13.22.075,StroopExp,2022.2.5,59.741795957842925,
b3,stroop_trial_condtions/b1.xlsx,0.7336815417486652,0,incongruent,BLUE,green,s,distractors/silence.wav,,,,,0,2,2,2,0,33,33,15,979.2109065000001,s,1,1.233582800000022,981.2099426000001,P36,2023-07-10_14h13.22.075,StroopExp,2022.2.5,59.741795957842925,
b3,stroop_trial_condtions/b1.xlsx,0.8708935669205526,0,congruent,RED,red,a,distractors/silence.wav,,,,,0,2,2,2,0,34,34,9,983.7261075,a,1,0.6902512999999999,985.7251057,P36,2023-07-10_14h13.22.075,StroopExp,2022.2.5,59.741795957842925,
b3,stroop_trial_condtions/b1.xlsx,0.6252124205445847,0,congruent,GREEN,green,s,distractors/silence.wav,,,,,0,2,2,2,0,35,35,24,988.2253676000001,s,1,0.9992827000000943,990.2368053000001,P36,2023-07-10_14h13.22.075,StroopExp,2022.2.5,59.741795957842925,
b3,stroop_trial_condtions/b1.xlsx,0.0729145768917061,0,congruent,BLUE,blue,d,distractors/silence.wav,,,,,0,2,2,2,0,36,36,3,992.7088601000002,d,1,1.771568200000047,994.7089212,P36,2023-07-10_14h13.22.075,StroopExp,2022.2.5,59.741795957842925,
b3,stroop_trial_condtions/b1.xlsx,0.027168618358859753,0,incongruent,RED,yellow,f,distractors/silence.wav,,,,,0,2,2,2,0,37,37,27,997.2214580000001,f,1,1.4668993000000228,999.2207847000001,P36,2023-07-10_14h13.22.075,StroopExp,2022.2.5,59.741795957842925,
b3,stroop_trial_condtions/b1.xlsx,0.004767373540519926,0,incongruent,RED,green,s,distractors/silence.wav,,,,,0,2,2,2,0,38,38,14,1001.7362062000001,s,1,1.4141978000000108,1003.7354953,P36,2023-07-10_14h13.22.075,StroopExp,2022.2.5,59.741795957842925,
b3,stroop_trial_condtions/b1.xlsx,0.24919007739364696,0,congruent,YELLOW,yellow,f,distractors/silence.wav,,,,,0,2,2,2,0,39,39,16,1006.2511834000001,f,1,0.7171127000001434,1008.2505164,P36,2023-07-10_14h13.22.075,StroopExp,2022.2.5,59.741795957842925,
b3,stroop_trial_condtions/b1.xlsx,0.632437180452533,0,incongruent,RED,blue,d,distractors/silence.wav,,,,,0,2,2,2,0,40,40,19,1010.7497543000001,d,1,1.701365899999928,1012.7493065,P36,2023-07-10_14h13.22.075,StroopExp,2022.2.5,59.741795957842925,
b3,stroop_trial_condtions/b1.xlsx,0.922953448054004,0,congruent,RED,red,a,distractors/silence.wav,,,,,0,2,2,2,0,41,41,40,1015.2647393000001,a,1,0.6816167999998015,1017.2644578000001,P36,2023-07-10_14h13.22.075,StroopExp,2022.2.5,59.741795957842925,
b3,stroop_trial_condtions/b1.xlsx,0.45159790316989123,0,congruent,BLUE,blue,d,distractors/silence.wav,,,,,0,2,2,2,0,42,42,22,1019.7470193,d,1,1.6557863999998972,1021.7461016999999,P36,2023-07-10_14h13.22.075,StroopExp,2022.2.5,59.741795957842925,
b3,stroop_trial_condtions/b1.xlsx,0.25693203245358776,0,congruent,BLUE,blue,d,distractors/silence.wav,,,,,0,2,2,2,0,43,43,30,1024.2454567999998,d,1,0.8093259999998281,1026.2447056,P36,2023-07-10_14h13.22.075,StroopExp,2022.2.5,59.741795957842925,
b3,stroop_trial_condtions/b1.xlsx,0.9396621068767484,0,congruent,RED,red,a,distractors/silence.wav,,,,,0,2,2,2,0,44,44,21,1028.7604400999999,a,1,0.5619421999999759,1030.7598478999998,P36,2023-07-10_14h13.22.075,StroopExp,2022.2.5,59.741795957842925,
b3,stroop_trial_condtions/b1.xlsx,0.8309483305278348,0,incongruent,BLUE,green,s,distractors/silence.wav,,,,,0,2,2,2,0,45,45,46,1033.2585116999999,s,1,1.344509399999879,1035.2585865,P36,2023-07-10_14h13.22.075,StroopExp,2022.2.5,59.741795957842925,
b3,stroop_trial_condtions/b1.xlsx,0.19133216126723684,0,congruent,GREEN,green,s,distractors/silence.wav,,,,,0,2,2,2,0,46,46,43,1037.7424709000002,s,1,1.0099103000000014,1039.7429602000002,P36,2023-07-10_14h13.22.075,StroopExp,2022.2.5,59.741795957842925,
b3,stroop_trial_condtions/b1.xlsx,0.7089760381977726,0,congruent,GREEN,green,s,distractors/silence.wav,,,,,0,2,2,2,0,47,47,8,1042.2424369,s,1,0.6839383000001362,,P36,2023-07-10_14h13.22.075,StroopExp,2022.2.5,59.741795957842925,
b4,stroop_trial_condtions/b3.xlsx,0.7490878176166669,1,congruent,GREEN,green,s,distractors/2.wav,,,,,0,3,3,3,0,0,0,46,1174.4275815,s,1,1.2670470000000478,1176.4275456999999,P36,2023-07-10_14h13.22.075,StroopExp,2022.2.5,59.741795957842925,
b4,stroop_trial_condtions/b3.xlsx,0.22157820962509556,1,incongruent,RED,green,s,distractors/4.wav,,,,,0,3,3,3,0,1,1,26,1178.9279811000001,s,1,1.918630099999973,1180.9281105,P36,2023-07-10_14h13.22.075,StroopExp,2022.2.5,59.741795957842925,
b4,stroop_trial_condtions/b3.xlsx,0.8010105832360127,1,incongruent,RED,blue,d,distractors/2.wav,,,,,0,3,3,3,0,2,2,13,1183.4110126,d,1,0.9737892000000556,1185.4242144999998,P36,2023-07-10_14h13.22.075,StroopExp,2022.2.5,59.741795957842925,
b4,stroop_trial_condtions/b3.xlsx,0.38862864409579867,1,congruent,RED,red,a,distractors/4.wav,,,,,0,3,3,3,0,3,3,17,1187.9235039,a,1,0.5113360000000284,,P36,2023-07-10_14h13.22.075,StroopExp,2022.2.5,59.741795957842925,
b4,stroop_trial_condtions/b3.xlsx,0.5042669091023176,1,congruent,BLUE,blue,d,distractors/2.wav,,,,,0,3,3,3,0,4,4,25,1192.4384555000001,d,1,1.294285299999956,1194.4375462000003,P36,2023-07-10_14h13.22.075,StroopExp,2022.2.5,59.741795957842925,
b4,stroop_trial_condtions/b3.xlsx,0.7591509381967968,1,congruent,YELLOW,yellow,f,distractors/3.wav,,,,,0,3,3,3,0,5,5,36,1196.9367889,f,1,0.78407059999995,1198.9363250000001,P36,2023-07-10_14h13.22.075,StroopExp,2022.2.5,59.741795957842925,
b4,stroop_trial_condtions/b3.xlsx,0.3048901609321858,1,incongruent,BLUE,green,s,distractors/1.wav,,,,,0,3,3,3,0,6,6,21,1201.452702,s,1,1.0038884000000508,,P36,2023-07-10_14h13.22.075,StroopExp,2022.2.5,59.741795957842925,
b4,stroop_trial_condtions/b3.xlsx,0.2532365547687505,1,congruent,GREEN,green,s,distractors/1.wav,,,,,0,3,3,3,0,7,7,10,1205.9674598000001,s,1,0.6347179999997934,,P36,2023-07-10_14h13.22.075,StroopExp,2022.2.5,59.741795957842925,
b4,stroop_trial_condtions/b3.xlsx,0.21440578937717747,1,incongruent,GREEN,red,a,distractors/4.wav,,,,,0,3,3,3,0,8,8,29,1210.4822474000002,a,1,0.8005705999999009,1212.4815454,P36,2023-07-10_14h13.22.075,StroopExp,2022.2.5,59.741795957842925,
b4,stroop_trial_condtions/b3.xlsx,0.8016808924679877,1,incongruent,YELLOW,red,a,distractors/3.wav,,,,,0,3,3,3,0,9,9,35,1214.981174,a,1,0.7995901000001595,,P36,2023-07-10_14h13.22.075,StroopExp,2022.2.5,59.741795957842925,
b4,stroop_trial_condtions/b3.xlsx,0.7415483131081879,1,congruent,YELLOW,yellow,f,distractors/1.wav,,,,,0,3,3,3,0,10,10,22,1219.4958409,f,1,1.410858400000052,1221.4952073,P36,2023-07-10_14h13.22.075,StroopExp,2022.2.5,59.741795957842925,
b4,stroop_trial_condtions/b3.xlsx,0.4909534620648366,1,congruent,GREEN,green,s,distractors/4.wav,,,,,0,3,3,3,0,11,11,1,1224.0114369000003,s,1,0.8931654000000435,1226.0117158000003,P36,2023-07-10_14h13.22.075,StroopExp,2022.2.5,59.741795957842925,
b4,stroop_trial_condtions/b3.xlsx,0.5091952837801443,1,congruent,RED,red,a,distractors/3.wav,,,,,0,3,3,3,0,12,12,23,1228.4955349000002,a,1,0.5848740000001271,1230.4953563,P36,2023-07-10_14h13.22.075,StroopExp,2022.2.5,59.741795957842925,
b4,stroop_trial_condtions/b3.xlsx,0.9277064063263939,1,incongruent,BLUE,red,a,distractors/1.wav,,,,,0,3,3,3,0,13,13,32,1232.9917135,a,1,0.6156547000000501,,P36,2023-07-10_14h13.22.075,StroopExp,2022.2.5,59.741795957842925,
b4,stroop_trial_condtions/b3.xlsx,0.610353600261409,1,incongruent,RED,green,s,distractors/2.wav,,,,,0,3,3,3,0,14,14,16,1237.5062885000002,s,1,1.1979670000000624,1239.5058294,P36,2023-07-10_14h13.22.075,StroopExp,2022.2.5,59.741795957842925,
b4,stroop_trial_condtions/b3.xlsx,0.7943148249806823,1,incongruent,BLUE,red,a,distractors/1.wav,,,,,0,3,3,3,0,15,15,30,1242.0050195,a,1,0.5894238000000769,1244.0041918000002,P36,2023-07-10_14h13.22.075,StroopExp,2022.2.5,59.741795957842925,
b4,stroop_trial_condtions/b3.xlsx,0.5857626834280144,1,congruent,GREEN,green,s,distractors/2.wav,,,,,0,3,3,3,0,16,16,18,1246.5202434000003,s,1,0.9304127000000335,1248.5196615,P36,2023-07-10_14h13.22.075,StroopExp,2022.2.5,59.741795957842925,
b4,stroop_trial_condtions/b3.xlsx,0.8013414949294776,1,incongruent,BLUE,yellow,f,distractors/4.wav,,,,,0,3,3,3,0,17,17,4,1251.0184875,f,1,0.8399546999999075,1253.0180913,P36,2023-07-10_14h13.22.075,StroopExp,2022.2.5,59.741795957842925,
b4,stroop_trial_condtions/b3.xlsx,0.9995126588586891,1,incongruent,GREEN,yellow,f,distractors/1.wav,,,,,0,3,3,3,0,18,18,39,1255.5337335,f,1,1.2463945999998032,1257.5331234999999,P36,2023-07-10_14h13.22.075,StroopExp,2022.2.5,59.741795957842925,
b4,stroop_trial_condtions/b3.xlsx,0.9654449717548405,1,congruent,BLUE,blue,d,distractors/2.wav,,,,,0,3,3,3,0,19,19,2,1260.0488283999998,d,1,0.953426699999909,1262.0477299,P36,2023-07-10_14h13.22.075,StroopExp,2022.2.5,59.741795957842925,
b4,stroop_trial_condtions/b3.xlsx,0.5121364174675235,1,congruent,BLUE,blue,d,distractors/3.wav,,,,,0,3,3,3,0,20,20,40,1264.5472688,None,0,,1266.5465817,P36,2023-07-10_14h13.22.075,StroopExp,2022.2.5,59.741795957842925,
b4,stroop_trial_condtions/b3.xlsx,0.010072895586636488,1,congruent,RED,red,a,distractors/4.wav,,,,,0,3,3,3,0,21,21,37,1269.0456467999998,a,1,0.7688112999999248,1271.0453665999999,P36,2023-07-10_14h13.22.075,StroopExp,2022.2.5,59.741795957842925,
b4,stroop_trial_condtions/b3.xlsx,0.21782885511366679,1,incongruent,GREEN,blue,d,distractors/1.wav,,,,,0,3,3,3,0,22,22,44,1273.5290596,d,1,1.4196403999999347,1275.5293047999999,P36,2023-07-10_14h13.22.075,StroopExp,2022.2.5,59.741795957842925,
b4,stroop_trial_condtions/b3.xlsx,0.01763447907037896,1,incongruent,RED,blue,d,distractors/3.wav,,,,,0,3,3,3,0,23,23,31,1278.0290541999998,d,1,1.0055781000000934,,P36,2023-07-10_14h13.22.075,StroopExp,2022.2.5,59.741795957842925,
b4,stroop_trial_condtions/b3.xlsx,0.8543495536120658,1,congruent,YELLOW,yellow,f,distractors/3.wav,,,,,0,3,3,3,0,24,24,27,1282.5415186,f,1,0.7547402999998667,1284.5402794000001,P36,2023-07-10_14h13.22.075,StroopExp,2022.2.5,59.741795957842925,
b4,stroop_trial_condtions/b3.xlsx,0.1398429663424724,1,congruent,GREEN,green,s,distractors/2.wav,,,,,0,3,3,3,0,25,25,8,1287.0560921000001,s,1,1.3180752999996912,1289.0555309000001,P36,2023-07-10_14h13.22.075,StroopExp,2022.2.5,59.741795957842925,
b4,stroop_trial_condtions/b3.xlsx,0.5524115762504958,1,incongruent,GREEN,blue,d,distractors/4.wav,,,,,0,3,3,3,0,26,26,15,1291.5547003000001,d,1,0.9813280999997005,1293.5541878999998,P36,2023-07-10_14h13.22.075,StroopExp,2022.2.5,59.741795957842925,
b4,stroop_trial_condtions/b3.xlsx,0.6771707449380959,1,congruent,GREEN,green,s,distractors/1.wav,,,,,0,3,3,3,0,27,27,5,1296.069621,s,1,1.0069790000002286,1298.0695372,P36,2023-07-10_14h13.22.075,StroopExp,2022.2.5,59.741795957842925,
b4,stroop_trial_condtions/b3.xlsx,0.6296527572668619,1,incongruent,GREEN,red,a,distractors/4.wav,,,,,0,3,3,3,0,28,28,24,1300.5686095,a,1,0.6994071999997686,1302.5678109,P36,2023-07-10_14h13.22.075,StroopExp,2022.2.5,59.741795957842925,
b4,stroop_trial_condtions/b3.xlsx,0.09103571529527676,1,incongruent,BLUE,yellow,f,distractors/3.wav,,,,,0,3,3,3,0,29,29,7,1305.0666035999998,f,1,0.7458556999999928,1307.0661541999998,P36,2023-07-10_14h13.22.075,StroopExp,2022.2.5,59.741795957842925,
b4,stroop_trial_condtions/b3.xlsx,0.28983611898456463,1,incongruent,GREEN,yellow,f,distractors/2.wav,,,,,0,3,3,3,0,30,30,20,1309.5821526999998,f,1,1.8564767000002576,1311.5812448000001,P36,2023-07-10_14h13.22.075,StroopExp,2022.2.5,59.741795957842925,
b4,stroop_trial_condtions/b3.xlsx,0.0557810844842791,1,incongruent,RED,yellow,f,distractors/4.wav,,,,,0,3,3,3,0,31,31,43,1314.0804047000001,f,1,0.8859714000000167,1316.0812111999999,P36,2023-07-10_14h13.22.075,StroopExp,2022.2.5,59.741795957842925,
b4,stroop_trial_condtions/b3.xlsx,0.5858254357624116,1,incongruent,YELLOW,blue,d,distractors/2.wav,,,,,0,3,3,3,0,32,32,12,1318.5962860999998,d,1,1.4698881999997866,1320.5961898,P36,2023-07-10_14h13.22.075,StroopExp,2022.2.5,59.741795957842925,
b4,stroop_trial_condtions/b3.xlsx,0.5078031949822321,1,congruent,YELLOW,yellow,f,distractors/3.wav,,,,,0,3,3,3,0,33,33,45,1323.0797100999998,f,1,0.8188142000003609,1325.079781,P36,2023-07-10_14h13.22.075,StroopExp,2022.2.5,59.741795957842925,
b4,stroop_trial_condtions/b3.xlsx,0.4256101321124697,1,congruent,BLUE,blue,d,distractors/4.wav,,,,,0,3,3,3,0,34,34,9,1327.5759706999997,None,0,,1329.5748721,P36,2023-07-10_14h13.22.075,StroopExp,2022.2.5,59.741795957842925,
b4,stroop_trial_condtions/b3.xlsx,0.5215658873690101,1,incongruent,YELLOW,blue,d,distractors/3.wav,,,,,0,3,3,3,0,35,35,14,1332.0747292,d,1,0.8615614000000278,1334.0915986,P36,2023-07-10_14h13.22.075,StroopExp,2022.2.5,59.741795957842925,
b4,stroop_trial_condtions/b3.xlsx,0.4220278048678988,1,incongruent,YELLOW,green,s,distractors/2.wav,,,,,0,3,3,3,0,36,36,33,1336.5897632,s,1,1.3226737999998477,1338.5889020999998,P36,2023-07-10_14h13.22.075,StroopExp,2022.2.5,59.741795957842925,
b4,stroop_trial_condtions/b3.xlsx,0.6000084328909321,1,congruent,BLUE,blue,d,distractors/3.wav,,,,,0,3,3,3,0,37,37,42,1341.1048556,d,1,1.4018333999997594,1343.1045238000002,P36,2023-07-10_14h13.22.075,StroopExp,2022.2.5,59.741795957842925,
b4,stroop_trial_condtions/b3.xlsx,0.4699973194550694,1,incongruent,YELLOW,red,a,distractors/2.wav,,,,,0,3,3,3,0,38,38,34,1345.6026714,a,1,0.7778843999999481,1347.6026861,P36,2023-07-10_14h13.22.075,StroopExp,2022.2.5,59.741795957842925,
b4,stroop_trial_condtions/b3.xlsx,0.8711656555587126,1,congruent,YELLOW,yellow,f,distractors/1.wav,,,,,0,3,3,3,0,39,39,11,1350.1017741,f,1,0.768747600000097,1352.1005504,P36,2023-07-10_14h13.22.075,StroopExp,2022.2.5,59.741795957842925,
b4,stroop_trial_condtions/b3.xlsx,0.48808766913605917,1,congruent,RED,red,a,distractors/4.wav,,,,,0,3,3,3,0,40,40,38,1354.6334925,a,1,0.46704730000010386,1356.6328143,P36,2023-07-10_14h13.22.075,StroopExp,2022.2.5,59.741795957842925,
b4,stroop_trial_condtions/b3.xlsx,0.46851590450319824,1,incongruent,YELLOW,green,s,distractors/1.wav,,,,,0,3,3,3,0,41,41,3,1359.1321373,s,1,0.8283989000001384,1361.1311931999999,P36,2023-07-10_14h13.22.075,StroopExp,2022.2.5,59.741795957842925,
b4,stroop_trial_condtions/b3.xlsx,0.568990759527847,1,congruent,BLUE,blue,d,distractors/3.wav,,,,,0,3,3,3,0,42,42,28,1363.6469782,d,1,1.6074068000002626,1365.6467100999998,P36,2023-07-10_14h13.22.075,StroopExp,2022.2.5,59.741795957842925,
b4,stroop_trial_condtions/b3.xlsx,0.3378719033646135,1,incongruent,RED,yellow,f,distractors/4.wav,,,,,0,3,3,3,0,43,43,19,1368.147019,f,1,0.9115759999999682,1370.1470918,P36,2023-07-10_14h13.22.075,StroopExp,2022.2.5,59.741795957842925,
b4,stroop_trial_condtions/b3.xlsx,0.45744716647321115,1,congruent,RED,red,a,distractors/1.wav,,,,,0,3,3,3,0,44,44,41,1372.6303444999999,a,1,0.9335469000002377,1374.6265186,P36,2023-07-10_14h13.22.075,StroopExp,2022.2.5,59.741795957842925,
b4,stroop_trial_condtions/b3.xlsx,0.264144016402854,1,congruent,RED,red,a,distractors/2.wav,,,,,0,3,3,3,0,45,45,6,1377.1258819999998,a,1,1.083475400000225,1379.1251582,P36,2023-07-10_14h13.22.075,StroopExp,2022.2.5,59.741795957842925,
b4,stroop_trial_condtions/b3.xlsx,0.10397582984293274,1,incongruent,BLUE,green,s,distractors/1.wav,,,,,0,3,3,3,0,46,46,47,1381.6408228999999,d,0,0.9834126999999171,1383.6405955,P36,2023-07-10_14h13.22.075,StroopExp,2022.2.5,59.741795957842925,
b4,stroop_trial_condtions/b3.xlsx,0.22948030212444814,1,congruent,YELLOW,yellow,f,distractors/3.wav,,,,,0,3,3,3,0,47,47,0,1386.1394758000001,f,1,0.8545383999999103,1388.1386621000001,P36,2023-07-10_14h13.22.075,StroopExp,2022.2.5,59.741795957842925,
