block_number,location,Index,has_distraction,trial_type,word,color,correct_key,distraction_file_name,practice_trials_4X5.thisRepN,practice_trials_4X5.thisTrialN,practice_trials_4X5.thisN,practice_trials_4X5.thisIndex,Type,direction,blocks.thisRepN,blocks.thisTrialN,blocks.thisN,blocks.thisIndex,trials.thisRepN,trials.thisTrialN,trials.thisN,trials.thisIndex,key_stroop.started,key_stroop.keys,key_stroop.corr,key_stroop.rt,key_stroop.stopped,participant,date,expName,psychopyVersion,frameRate,
b1,stroop_trial_condtions/b1.xlsx,0.9396621068767484,0,congruent,RED,red,a,distractors/silence.wav,,,,,,,0,0,0,0,0,0,0,21,102.46733780000022,None,0,,,P11,2023-06-08_10h43.22.500,StroopExp,2022.2.5,59.969331683692126,
b1,stroop_trial_condtions/b1.xlsx,0.7445649241064577,0,congruent,GREEN,green,s,distractors/silence.wav,,,,,,,0,0,0,0,0,1,1,42,106.9827151000004,end,0,0.6562026999999944,,P11,2023-06-08_10h43.22.500,StroopExp,2022.2.5,59.969331683692126,
b2,stroop_trial_condtions/b2.xlsx,0.03433248455064386,1,incongruent,YELLOW,red,a,distractors/2.wav,,,,,,,0,1,1,1,0,0,0,13,207.4480477000002,a,1,0.6607468000001973,209.4472406,P11,2023-06-08_10h43.22.500,StroopExp,2022.2.5,59.969331683692126,
b2,stroop_trial_condtions/b2.xlsx,0.23156741124673452,1,congruent,GREEN,green,s,distractors/4.wav,,,,,,,0,1,1,1,0,1,1,8,211.96315500000037,s,1,0.8116649000003235,213.96253400000023,P11,2023-06-08_10h43.22.500,StroopExp,2022.2.5,59.969331683692126,
b2,stroop_trial_condtions/b2.xlsx,0.4832744640468789,1,congruent,YELLOW,yellow,f,distractors/1.wav,,,,,,,0,1,1,1,0,2,2,24,216.47834230000035,f,1,0.6412278000002516,218.47742340000013,P11,2023-06-08_10h43.22.500,StroopExp,2022.2.5,59.969331683692126,
b2,stroop_trial_condtions/b2.xlsx,0.15564368800765982,1,incongruent,YELLOW,blue,d,distractors/3.wav,,,,,,,0,1,1,1,0,3,3,39,220.97739690000026,d,1,0.7662817999998879,222.97828600000003,P11,2023-06-08_10h43.22.500,StroopExp,2022.2.5,59.969331683692126,
b2,stroop_trial_condtions/b2.xlsx,0.8140627153069117,1,congruent,BLUE,blue,d,distractors/2.wav,,,,,,,0,1,1,1,0,4,4,36,225.47715319999998,d,1,0.7416161999999531,227.4775920000002,P11,2023-06-08_10h43.22.500,StroopExp,2022.2.5,59.969331683692126,
b2,stroop_trial_condtions/b2.xlsx,0.776926077509408,1,incongruent,GREEN,blue,d,distractors/4.wav,,,,,,,0,1,1,1,0,5,5,22,229.9737401000002,d,1,0.8353461000001516,231.97300760000007,P11,2023-06-08_10h43.22.500,StroopExp,2022.2.5,59.969331683692126,
b2,stroop_trial_condtions/b2.xlsx,0.21174317193635972,1,congruent,YELLOW,yellow,f,distractors/2.wav,,,,,,,0,1,1,1,0,6,6,38,234.47203320000017,f,1,0.6694581000001563,236.47131190000027,P11,2023-06-08_10h43.22.500,StroopExp,2022.2.5,59.969331683692126,
b2,stroop_trial_condtions/b2.xlsx,0.06730533561031782,1,incongruent,BLUE,yellow,f,distractors/3.wav,,,,,,,0,1,1,1,0,7,7,26,238.97049050000032,f,1,1.0626852000000326,240.9695396000002,P11,2023-06-08_10h43.22.500,StroopExp,2022.2.5,59.969331683692126,
b2,stroop_trial_condtions/b2.xlsx,0.7331852058029119,1,incongruent,GREEN,blue,d,distractors/4.wav,,,,,,,0,1,1,1,0,8,8,28,243.48552840000002,d,1,0.9738194999999905,245.4850776000003,P11,2023-06-08_10h43.22.500,StroopExp,2022.2.5,59.969331683692126,
b2,stroop_trial_condtions/b2.xlsx,0.255397179890806,1,congruent,YELLOW,yellow,f,distractors/1.wav,,,,,,,0,1,1,1,0,9,9,45,247.98405500000035,f,1,0.7505369999998948,249.9839662000004,P11,2023-06-08_10h43.22.500,StroopExp,2022.2.5,59.969331683692126,
b2,stroop_trial_condtions/b2.xlsx,0.12819537203794318,1,incongruent,YELLOW,red,a,distractors/3.wav,,,,,,,0,1,1,1,0,10,10,35,252.48282229999995,a,1,0.620583799999622,,P11,2023-06-08_10h43.22.500,StroopExp,2022.2.5,59.969331683692126,
b2,stroop_trial_condtions/b2.xlsx,0.14441839566692105,1,congruent,GREEN,green,s,distractors/1.wav,,,,,,,0,1,1,1,0,11,11,43,256.99810060000027,s,1,1.3030186999999387,258.9970555,P11,2023-06-08_10h43.22.500,StroopExp,2022.2.5,59.969331683692126,
b2,stroop_trial_condtions/b2.xlsx,0.5030786504893666,1,incongruent,YELLOW,green,s,distractors/4.wav,,,,,,,0,1,1,1,0,12,12,19,261.512933,s,1,1.0077784999998585,,P11,2023-06-08_10h43.22.500,StroopExp,2022.2.5,59.969331683692126,
b2,stroop_trial_condtions/b2.xlsx,0.09088957165746492,1,congruent,RED,red,a,distractors/3.wav,,,,,,,0,1,1,1,0,13,13,41,266.02779039999996,a,1,0.8050445999997464,268.0280579,P11,2023-06-08_10h43.22.500,StroopExp,2022.2.5,59.969331683692126,
b2,stroop_trial_condtions/b2.xlsx,0.3240706252403076,1,congruent,YELLOW,yellow,f,distractors/3.wav,,,,,,,0,1,1,1,0,14,14,15,270.5111787000001,f,1,0.7670941000001221,272.5114401000001,P11,2023-06-08_10h43.22.500,StroopExp,2022.2.5,59.969331683692126,
b2,stroop_trial_condtions/b2.xlsx,0.5007983240031381,1,incongruent,BLUE,green,s,distractors/1.wav,,,,,,,0,1,1,1,0,15,15,18,274.99459990000014,s,1,1.8388021999999182,277.00770200000034,P11,2023-06-08_10h43.22.500,StroopExp,2022.2.5,59.969331683692126,
b2,stroop_trial_condtions/b2.xlsx,0.7962676920675457,1,incongruent,RED,blue,d,distractors/4.wav,,,,,,,0,1,1,1,0,16,16,46,279.50709110000025,d,1,0.8494037999998909,,P11,2023-06-08_10h43.22.500,StroopExp,2022.2.5,59.969331683692126,
b2,stroop_trial_condtions/b2.xlsx,0.2950231286066718,1,incongruent,BLUE,red,a,distractors/1.wav,,,,,,,0,1,1,1,0,17,17,37,284.0219172000002,a,1,0.721113399999922,286.0212846000004,P11,2023-06-08_10h43.22.500,StroopExp,2022.2.5,59.969331683692126,
b2,stroop_trial_condtions/b2.xlsx,0.5317591854488619,1,congruent,YELLOW,yellow,f,distractors/2.wav,,,,,,,0,1,1,1,0,18,18,34,288.5202330000002,f,1,0.7565938000002461,290.51969780000036,P11,2023-06-08_10h43.22.500,StroopExp,2022.2.5,59.969331683692126,
b2,stroop_trial_condtions/b2.xlsx,0.9734714245974094,1,congruent,BLUE,blue,d,distractors/2.wav,,,,,,,0,1,1,1,0,19,19,1,293.01879510000026,d,1,0.8577319000000898,295.01780320000034,P11,2023-06-08_10h43.22.500,StroopExp,2022.2.5,59.969331683692126,
b2,stroop_trial_condtions/b2.xlsx,0.4249079497252247,1,congruent,GREEN,green,s,distractors/2.wav,,,,,,,0,1,1,1,0,20,20,4,297.5175226000001,s,1,0.7338445999998839,,P11,2023-06-08_10h43.22.500,StroopExp,2022.2.5,59.969331683692126,
b2,stroop_trial_condtions/b2.xlsx,0.8857086195357853,1,congruent,BLUE,blue,d,distractors/1.wav,,,,,,,0,1,1,1,0,21,21,16,302.0325256000001,d,1,0.732900200000131,,P11,2023-06-08_10h43.22.500,StroopExp,2022.2.5,59.969331683692126,
b2,stroop_trial_condtions/b2.xlsx,0.06502382441476195,1,incongruent,GREEN,yellow,f,distractors/1.wav,,,,,,,0,1,1,1,0,22,22,7,306.54762230000006,f,1,0.7872713000001568,,P11,2023-06-08_10h43.22.500,StroopExp,2022.2.5,59.969331683692126,
b2,stroop_trial_condtions/b2.xlsx,0.3293331866279865,1,incongruent,YELLOW,green,s,distractors/2.wav,,,,,,,0,1,1,1,0,23,23,6,311.0628135000002,s,1,0.9556563000001006,313.06190890000016,P11,2023-06-08_10h43.22.500,StroopExp,2022.2.5,59.969331683692126,
b2,stroop_trial_condtions/b2.xlsx,0.4926856322739591,1,congruent,RED,red,a,distractors/4.wav,,,,,,,0,1,1,1,0,24,24,27,315.5619565000002,a,1,0.7606332000000293,317.5613255000003,P11,2023-06-08_10h43.22.500,StroopExp,2022.2.5,59.969331683692126,
b2,stroop_trial_condtions/b2.xlsx,0.6661419533997107,1,congruent,RED,red,a,distractors/2.wav,,,,,,,0,1,1,1,0,25,25,3,320.0453596000002,a,1,0.7254453000000467,322.0450684000002,P11,2023-06-08_10h43.22.500,StroopExp,2022.2.5,59.969331683692126,
b2,stroop_trial_condtions/b2.xlsx,0.3400635619663932,1,congruent,YELLOW,yellow,f,distractors/3.wav,,,,,,,0,1,1,1,0,26,26,12,324.54530650000015,f,1,0.8097308000001249,,P11,2023-06-08_10h43.22.500,StroopExp,2022.2.5,59.969331683692126,
b2,stroop_trial_condtions/b2.xlsx,0.8135146664790234,1,incongruent,GREEN,red,a,distractors/3.wav,,,,,,,0,1,1,1,0,27,27,40,329.0562562,a,1,0.758414299999913,331.0557818000002,P11,2023-06-08_10h43.22.500,StroopExp,2022.2.5,59.969331683692126,
b2,stroop_trial_condtions/b2.xlsx,0.6295899639289376,1,congruent,RED,red,a,distractors/2.wav,,,,,,,0,1,1,1,0,28,28,11,333.5547964000002,a,1,0.6174049000001105,335.5544576000002,P11,2023-06-08_10h43.22.500,StroopExp,2022.2.5,59.969331683692126,
b2,stroop_trial_condtions/b2.xlsx,0.9668213022564922,1,congruent,BLUE,blue,d,distractors/2.wav,,,,,,,0,1,1,1,0,29,29,21,338.0534858000001,d,1,1.2638621000000967,340.05277810000007,P11,2023-06-08_10h43.22.500,StroopExp,2022.2.5,59.969331683692126,
b2,stroop_trial_condtions/b2.xlsx,0.19636652195914828,1,incongruent,GREEN,red,a,distractors/1.wav,,,,,,,0,1,1,1,0,30,30,9,342.55173630000036,a,1,0.6495090999997046,344.5511782000003,P11,2023-06-08_10h43.22.500,StroopExp,2022.2.5,59.969331683692126,
b2,stroop_trial_condtions/b2.xlsx,0.011991741755762342,1,congruent,RED,red,a,distractors/4.wav,,,,,,,0,1,1,1,0,31,31,42,347.0504797000003,a,1,0.5926333999996132,349.0499165000001,P11,2023-06-08_10h43.22.500,StroopExp,2022.2.5,59.969331683692126,
b2,stroop_trial_condtions/b2.xlsx,0.33083395410092575,1,incongruent,BLUE,yellow,f,distractors/4.wav,,,,,,,0,1,1,1,0,32,32,5,351.54862760000015,f,1,0.8719094999996742,353.54827810000006,P11,2023-06-08_10h43.22.500,StroopExp,2022.2.5,59.969331683692126,
b2,stroop_trial_condtions/b2.xlsx,0.10839814050721508,1,incongruent,RED,green,s,distractors/1.wav,,,,,,,0,1,1,1,0,33,33,14,356.0474244000002,s,1,1.4137306999996326,358.0465242,P11,2023-06-08_10h43.22.500,StroopExp,2022.2.5,59.969331683692126,
b2,stroop_trial_condtions/b2.xlsx,0.8586137871935915,1,incongruent,YELLOW,blue,d,distractors/3.wav,,,,,,,0,1,1,1,0,34,34,44,360.5628319000002,d,1,0.8703647000002093,362.56188550000024,P11,2023-06-08_10h43.22.500,StroopExp,2022.2.5,59.969331683692126,
b2,stroop_trial_condtions/b2.xlsx,0.4889714654954811,1,incongruent,BLUE,red,a,distractors/4.wav,,,,,,,0,1,1,1,0,35,35,29,365.0457666000002,a,1,0.6026666000002479,367.0458831000001,P11,2023-06-08_10h43.22.500,StroopExp,2022.2.5,59.969331683692126,
b2,stroop_trial_condtions/b2.xlsx,0.08769688168855672,1,incongruent,RED,green,s,distractors/3.wav,,,,,,,0,1,1,1,0,36,36,47,369.5291953000001,s,1,1.2677711999999701,371.54229110000006,P11,2023-06-08_10h43.22.500,StroopExp,2022.2.5,59.969331683692126,
b2,stroop_trial_condtions/b2.xlsx,0.828978615866739,1,incongruent,RED,yellow,f,distractors/4.wav,,,,,,,0,1,1,1,0,37,37,31,374.0410052000002,f,1,0.757266200000231,376.0409499000002,P11,2023-06-08_10h43.22.500,StroopExp,2022.2.5,59.969331683692126,
b2,stroop_trial_condtions/b2.xlsx,0.5224761727455313,1,incongruent,RED,blue,d,distractors/1.wav,,,,,,,0,1,1,1,0,38,38,20,378.55626870000015,d,1,1.0306460000001607,380.55578300000025,P11,2023-06-08_10h43.22.500,StroopExp,2022.2.5,59.969331683692126,
b2,stroop_trial_condtions/b2.xlsx,0.7131950070563138,1,congruent,GREEN,green,s,distractors/2.wav,,,,,,,0,1,1,1,0,39,39,10,383.0714409000002,s,1,0.9804604999999356,385.0710630000003,P11,2023-06-08_10h43.22.500,StroopExp,2022.2.5,59.969331683692126,
b2,stroop_trial_condtions/b2.xlsx,0.9005674222221599,1,congruent,BLUE,blue,d,distractors/2.wav,,,,,,,0,1,1,1,0,40,40,30,387.5698539,d,1,0.8531702000000223,389.56925390000015,P11,2023-06-08_10h43.22.500,StroopExp,2022.2.5,59.969331683692126,
b2,stroop_trial_condtions/b2.xlsx,0.041649080139953165,1,incongruent,RED,yellow,f,distractors/4.wav,,,,,,,0,1,1,1,0,41,41,2,392.08502880000015,f,1,0.6953472000000147,394.0844099000001,P11,2023-06-08_10h43.22.500,StroopExp,2022.2.5,59.969331683692126,
b2,stroop_trial_condtions/b2.xlsx,0.16494802758791438,1,congruent,GREEN,green,s,distractors/4.wav,,,,,,,0,1,1,1,0,42,42,23,396.58411000000024,s,1,1.5166344999997818,,P11,2023-06-08_10h43.22.500,StroopExp,2022.2.5,59.969331683692126,
b2,stroop_trial_condtions/b2.xlsx,0.7676806241710538,1,congruent,BLUE,blue,d,distractors/3.wav,,,,,,,0,1,1,1,0,43,43,32,401.0986334000004,d,1,0.8780688000001646,403.09790440000006,P11,2023-06-08_10h43.22.500,StroopExp,2022.2.5,59.969331683692126,
b2,stroop_trial_condtions/b2.xlsx,0.8384300714767312,1,congruent,RED,red,a,distractors/1.wav,,,,,,,0,1,1,1,0,44,44,25,405.6145928000001,a,1,0.9863589999999931,407.6131098000001,P11,2023-06-08_10h43.22.500,StroopExp,2022.2.5,59.969331683692126,
b2,stroop_trial_condtions/b2.xlsx,0.5666506333865139,1,incongruent,GREEN,yellow,f,distractors/3.wav,,,,,,,0,1,1,1,0,45,45,0,410.1128493000001,f,1,1.0339138000003913,412.1126900000004,P11,2023-06-08_10h43.22.500,StroopExp,2022.2.5,59.969331683692126,
b2,stroop_trial_condtions/b2.xlsx,0.10715468186921961,1,incongruent,BLUE,green,s,distractors/3.wav,,,,,,,0,1,1,1,0,46,46,33,414.5963690000003,s,1,1.5599803999998585,416.5965658,P11,2023-06-08_10h43.22.500,StroopExp,2022.2.5,59.969331683692126,
b2,stroop_trial_condtions/b2.xlsx,0.3614790911510004,1,congruent,GREEN,green,s,distractors/1.wav,,,,,,,0,1,1,1,0,47,47,17,419.0926069000002,s,1,0.8035460999999486,421.09171830000014,P11,2023-06-08_10h43.22.500,StroopExp,2022.2.5,59.969331683692126,
