block_number,location,Index,has_distraction,trial_type,word,color,correct_key,distraction_file_name,practice_trials_4X5.thisRepN,practice_trials_4X5.thisTrialN,practice_trials_4X5.thisN,practice_trials_4X5.thisIndex,Type,direction,blocks.thisRepN,blocks.thisTrialN,blocks.thisN,blocks.thisIndex,trials.thisRepN,trials.thisTrialN,trials.thisN,trials.thisIndex,key_stroop.started,key_stroop.stopped,key_stroop.keys,key_stroop.corr,key_stroop.rt,participant,date,expName,psychopyVersion,frameRate
b1,stroop_trial_condtions/b1.xlsx,0.8328021,0,incongruent,GREEN,red,a,distractors/silence.wav,,,,,,,0,0,0,0,0,0,0,41,127.4792406,129.481329,a,1,1.1351464,P6,2023-06-09_13h41.47.888,StroopExp,2022.2.5,60.01097001
b1,stroop_trial_condtions/b1.xlsx,0.072914577,0,congruent,BLUE,blue,d,distractors/silence.wav,,,,,,,0,0,0,0,0,1,1,3,131.9790034,,d,1,1.6476689,P6,2023-06-09_13h41.47.888,StroopExp,2022.2.5,60.01097001
b1,stroop_trial_condtions/b1.xlsx,0.68696849,0,congruent,YELLOW,yellow,f,distractors/silence.wav,,,,,,,0,0,0,0,0,2,2,45,136.4928111,138.4924793,f,1,0.8057236,P6,2023-06-09_13h41.47.888,StroopExp,2022.2.5,60.01097001
b1,stroop_trial_condtions/b1.xlsx,0.708976038,0,congruent,GREEN,green,s,distractors/silence.wav,,,,,,,0,0,0,0,0,3,3,8,140.991628,142.990643,s,1,0.8879338,P6,2023-06-09_13h41.47.888,StroopExp,2022.2.5,60.01097001
b1,stroop_trial_condtions/b1.xlsx,0.936669537,0,incongruent,GREEN,yellow,f,distractors/silence.wav,,,,,,,0,0,0,0,0,4,4,34,145.5064422,147.5061397,f,1,0.9276904,P6,2023-06-09_13h41.47.888,StroopExp,2022.2.5,60.01097001
b1,stroop_trial_condtions/b1.xlsx,0.976569181,0,incongruent,YELLOW,blue,d,distractors/silence.wav,,,,,,,0,0,0,0,0,5,5,39,149.9897074,151.9895849,d,1,1.028778,P6,2023-06-09_13h41.47.888,StroopExp,2022.2.5,60.01097001
b1,stroop_trial_condtions/b1.xlsx,0.237396997,0,incongruent,GREEN,blue,d,distractors/silence.wav,,,,,,,0,0,0,0,0,6,6,18,154.4730855,156.4862361,d,1,1.382635,P6,2023-06-09_13h41.47.888,StroopExp,2022.2.5,60.01097001
b1,stroop_trial_condtions/b1.xlsx,0.153196184,0,incongruent,YELLOW,green,s,distractors/silence.wav,,,,,,,0,0,0,0,0,7,7,31,158.9852981,160.9849986,s,1,0.8703983,P6,2023-06-09_13h41.47.888,StroopExp,2022.2.5,60.01097001
b1,stroop_trial_condtions/b1.xlsx,0.830948331,0,incongruent,BLUE,green,s,distractors/silence.wav,,,,,,,0,0,0,0,0,8,8,46,163.4844952,,s,1,0.895804,P6,2023-06-09_13h41.47.888,StroopExp,2022.2.5,60.01097001
b1,stroop_trial_condtions/b1.xlsx,0.674408476,0,incongruent,BLUE,yellow,f,distractors/silence.wav,,,,,,,0,0,0,0,0,9,9,26,167.998963,169.999343,f,1,0.9490888,P6,2023-06-09_13h41.47.888,StroopExp,2022.2.5,60.01097001
b1,stroop_trial_condtions/b1.xlsx,0.199393364,0,congruent,YELLOW,yellow,f,distractors/silence.wav,,,,,,,0,0,0,0,0,10,10,23,172.4969953,174.4962677,f,1,0.7590636,P6,2023-06-09_13h41.47.888,StroopExp,2022.2.5,60.01097001
b1,stroop_trial_condtions/b1.xlsx,0.870893567,0,congruent,RED,red,a,distractors/silence.wav,,,,,,,0,0,0,0,0,11,11,9,176.9965248,178.9956549,a,1,0.8137814,P6,2023-06-09_13h41.47.888,StroopExp,2022.2.5,60.01097001
b1,stroop_trial_condtions/b1.xlsx,0.680507855,0,incongruent,GREEN,yellow,f,distractors/silence.wav,,,,,,,0,0,0,0,0,12,12,33,181.4939117,183.4933426,f,1,1.356547,P6,2023-06-09_13h41.47.888,StroopExp,2022.2.5,60.01097001
b1,stroop_trial_condtions/b1.xlsx,0.922953448,0,congruent,RED,red,a,distractors/silence.wav,,,,,,,0,0,0,0,0,13,13,40,185.9927732,187.9919107,a,1,0.9275043,P6,2023-06-09_13h41.47.888,StroopExp,2022.2.5,60.01097001
b1,stroop_trial_condtions/b1.xlsx,0.971858016,0,congruent,RED,red,a,distractors/silence.wav,,,,,,,0,0,0,0,0,14,14,0,190.4913075,192.4908588,a,1,0.9462183,P6,2023-06-09_13h41.47.888,StroopExp,2022.2.5,60.01097001
b1,stroop_trial_condtions/b1.xlsx,0.744564924,0,congruent,GREEN,green,s,distractors/silence.wav,,,,,,,0,0,0,0,0,15,15,42,195.0068206,197.0069345,d,0,1.2433029,P6,2023-06-09_13h41.47.888,StroopExp,2022.2.5,60.01097001
b1,stroop_trial_condtions/b1.xlsx,0.493018261,0,congruent,BLUE,blue,d,distractors/silence.wav,,,,,,,0,0,0,0,0,16,16,7,199.5067299,201.5069112,d,1,1.2166761,P6,2023-06-09_13h41.47.888,StroopExp,2022.2.5,60.01097001
b1,stroop_trial_condtions/b1.xlsx,0.579491601,0,congruent,RED,red,a,distractors/silence.wav,,,,,,,0,0,0,0,0,17,17,47,204.0029861,206.0025337,a,1,0.9330826,P6,2023-06-09_13h41.47.888,StroopExp,2022.2.5,60.01097001
b1,stroop_trial_condtions/b1.xlsx,0.401782254,0,incongruent,YELLOW,red,a,distractors/silence.wav,,,,,,,0,0,0,0,0,18,18,12,208.51807,210.5175328,a,1,0.9829836,P6,2023-06-09_13h41.47.888,StroopExp,2022.2.5,60.01097001
b1,stroop_trial_condtions/b1.xlsx,0.548087945,0,congruent,YELLOW,yellow,f,distractors/silence.wav,,,,,,,0,0,0,0,0,19,19,32,212.999902,214.9994163,f,1,1.5176023,P6,2023-06-09_13h41.47.888,StroopExp,2022.2.5,60.01097001
b1,stroop_trial_condtions/b1.xlsx,0.256932032,0,congruent,BLUE,blue,d,distractors/silence.wav,,,,,,,0,0,0,0,0,20,20,30,217.5151856,219.5144747,d,1,1.0289536,P6,2023-06-09_13h41.47.888,StroopExp,2022.2.5,60.01097001
b1,stroop_trial_condtions/b1.xlsx,0.542994022,0,congruent,YELLOW,yellow,f,distractors/silence.wav,,,,,,,0,0,0,0,0,21,21,28,221.99723,223.996278,f,1,0.7526021,P6,2023-06-09_13h41.47.888,StroopExp,2022.2.5,60.01097001
b1,stroop_trial_condtions/b1.xlsx,0.01936095,0,incongruent,YELLOW,green,s,distractors/silence.wav,,,,,,,0,0,0,0,0,22,22,2,226.4953964,228.4945596,s,1,0.9605667,P6,2023-06-09_13h41.47.888,StroopExp,2022.2.5,60.01097001
b1,stroop_trial_condtions/b1.xlsx,0.004767374,0,incongruent,RED,green,s,distractors/silence.wav,,,,,,,0,0,0,0,0,23,23,14,230.994061,232.9943074,s,1,0.8299808,P6,2023-06-09_13h41.47.888,StroopExp,2022.2.5,60.01097001
b1,stroop_trial_condtions/b1.xlsx,0.249190077,0,congruent,YELLOW,yellow,f,distractors/silence.wav,,,,,,,0,0,0,0,0,24,24,16,235.4925988,237.4917802,f,1,0.7999659,P6,2023-06-09_13h41.47.888,StroopExp,2022.2.5,60.01097001
b1,stroop_trial_condtions/b1.xlsx,0.451597903,0,congruent,BLUE,blue,d,distractors/silence.wav,,,,,,,0,0,0,0,0,25,25,22,239.9908543,241.9904017,d,1,1.1725782,P6,2023-06-09_13h41.47.888,StroopExp,2022.2.5,60.01097001
b1,stroop_trial_condtions/b1.xlsx,0.419315371,0,congruent,RED,red,a,distractors/silence.wav,,,,,,,0,0,0,0,0,26,26,38,244.5074071,246.5075705,a,1,1.0099773,P6,2023-06-09_13h41.47.888,StroopExp,2022.2.5,60.01097001
b1,stroop_trial_condtions/b1.xlsx,0.625212421,0,congruent,GREEN,green,s,distractors/silence.wav,,,,,,,0,0,0,0,0,27,27,24,248.9909333,250.99073,s,1,0.9174278,P6,2023-06-09_13h41.47.888,StroopExp,2022.2.5,60.01097001
b1,stroop_trial_condtions/b1.xlsx,0.733681542,0,incongruent,BLUE,green,s,distractors/silence.wav,,,,,,,0,0,0,0,0,28,28,15,253.4863208,255.4858616,s,1,0.7209839,P6,2023-06-09_13h41.47.888,StroopExp,2022.2.5,60.01097001
b1,stroop_trial_condtions/b1.xlsx,0.896952266,0,incongruent,YELLOW,blue,d,distractors/silence.wav,,,,,,,0,0,0,0,0,29,29,25,257.9846514,259.9839085,d,1,1.0792496,P6,2023-06-09_13h41.47.888,StroopExp,2022.2.5,60.01097001
b1,stroop_trial_condtions/b1.xlsx,0.729684234,0,incongruent,BLUE,red,a,distractors/silence.wav,,,,,,,0,0,0,0,0,30,30,29,262.5160515,264.5156583,a,1,1.1076781,P6,2023-06-09_13h41.47.888,StroopExp,2022.2.5,60.01097001
b1,stroop_trial_condtions/b1.xlsx,0.935097843,0,incongruent,RED,blue,d,distractors/silence.wav,,,,,,,0,0,0,0,0,31,31,17,266.9982622,268.9974516,d,1,1.2955686,P6,2023-06-09_13h41.47.888,StroopExp,2022.2.5,60.01097001
b1,stroop_trial_condtions/b1.xlsx,0.976942146,0,congruent,BLUE,blue,d,distractors/silence.wav,,,,,,,0,0,0,0,0,32,32,13,271.4965913,273.4960546,d,1,0.8566462,P6,2023-06-09_13h41.47.888,StroopExp,2022.2.5,60.01097001
b1,stroop_trial_condtions/b1.xlsx,0.667196906,0,incongruent,RED,green,s,distractors/silence.wav,,,,,,,0,0,0,0,0,33,33,36,275.9955681,277.994494,s,1,0.9995852,P6,2023-06-09_13h41.47.888,StroopExp,2022.2.5,60.01097001
b1,stroop_trial_condtions/b1.xlsx,0.870406961,0,congruent,YELLOW,yellow,f,distractors/silence.wav,,,,,,,0,0,0,0,0,34,34,11,280.4936125,282.4930483,f,1,0.8175572,P6,2023-06-09_13h41.47.888,StroopExp,2022.2.5,60.01097001
b1,stroop_trial_condtions/b1.xlsx,0.251874896,0,incongruent,GREEN,blue,d,distractors/silence.wav,,,,,,,0,0,0,0,0,35,35,37,284.9923465,286.9922044,d,1,1.2834193,P6,2023-06-09_13h41.47.888,StroopExp,2022.2.5,60.01097001
b1,stroop_trial_condtions/b1.xlsx,0.077117098,0,incongruent,BLUE,red,a,distractors/silence.wav,,,,,,,0,0,0,0,0,36,36,35,289.5082529,291.508004,a,1,1.9613767,P6,2023-06-09_13h41.47.888,StroopExp,2022.2.5,60.01097001
b1,stroop_trial_condtions/b1.xlsx,0.939662107,0,congruent,RED,red,a,distractors/silence.wav,,,,,,,0,0,0,0,0,37,37,21,293.9912507,296.0052443,a,1,0.9379421,P6,2023-06-09_13h41.47.888,StroopExp,2022.2.5,60.01097001
b1,stroop_trial_condtions/b1.xlsx,0.191332161,0,congruent,GREEN,green,s,distractors/silence.wav,,,,,,,0,0,0,0,0,38,38,43,298.4877408,300.4871811,s,1,1.0420591,P6,2023-06-09_13h41.47.888,StroopExp,2022.2.5,60.01097001
b1,stroop_trial_condtions/b1.xlsx,0.583196525,0,congruent,BLUE,blue,d,distractors/silence.wav,,,,,,,0,0,0,0,0,39,39,44,302.9860188,304.9857165,d,1,1.6237944,P6,2023-06-09_13h41.47.888,StroopExp,2022.2.5,60.01097001
b1,stroop_trial_condtions/b1.xlsx,0.983636333,0,incongruent,RED,yellow,f,distractors/silence.wav,,,,,,,0,0,0,0,0,40,40,10,307.484474,309.4840653,f,1,1.235028,P6,2023-06-09_13h41.47.888,StroopExp,2022.2.5,60.01097001
b1,stroop_trial_condtions/b1.xlsx,0.027168618,0,incongruent,RED,yellow,f,distractors/silence.wav,,,,,,,0,0,0,0,0,41,41,27,311.9997324,313.9994259,f,1,0.7541122,P6,2023-06-09_13h41.47.888,StroopExp,2022.2.5,60.01097001
b1,stroop_trial_condtions/b1.xlsx,0.647841101,0,incongruent,GREEN,red,a,distractors/silence.wav,,,,,,,0,0,0,0,0,42,42,6,316.4982608,318.4973984,a,1,1.0134444,P6,2023-06-09_13h41.47.888,StroopExp,2022.2.5,60.01097001
b1,stroop_trial_condtions/b1.xlsx,0.350328137,0,congruent,GREEN,green,s,distractors/silence.wav,,,,,,,0,0,0,0,0,43,43,20,320.9968758,322.9958246,s,1,0.770873,P6,2023-06-09_13h41.47.888,StroopExp,2022.2.5,60.01097001
b1,stroop_trial_condtions/b1.xlsx,0.63243718,0,incongruent,RED,blue,d,distractors/silence.wav,,,,,,,0,0,0,0,0,44,44,19,325.5282145,327.5278306,a,0,0.8297585,P6,2023-06-09_13h41.47.888,StroopExp,2022.2.5,60.01097001
b1,stroop_trial_condtions/b1.xlsx,0.660435133,0,congruent,GREEN,green,s,distractors/silence.wav,,,,,,,0,0,0,0,0,45,45,4,330.026876,332.0263152,d,0,1.3282373,P6,2023-06-09_13h41.47.888,StroopExp,2022.2.5,60.01097001
b1,stroop_trial_condtions/b1.xlsx,0.571650714,0,incongruent,YELLOW,red,a,distractors/silence.wav,,,,,,,0,0,0,0,0,46,46,5,334.5253603,336.5251955,a,1,1.0829198,P6,2023-06-09_13h41.47.888,StroopExp,2022.2.5,60.01097001
b1,stroop_trial_condtions/b1.xlsx,0.543070637,0,incongruent,BLUE,yellow,f,distractors/silence.wav,,,,,,,0,0,0,0,0,47,47,1,339.0086035,341.0084947,f,1,0.8710791,P6,2023-06-09_13h41.47.888,StroopExp,2022.2.5,60.01097001
b2,stroop_trial_condtions/b2.xlsx,0.492685632,1,congruent,RED,red,a,distractors/4.wav,,,,,,,0,1,1,1,0,0,0,27,451.452352,453.4735843,a,1,1.0012841,P6,2023-06-09_13h41.47.888,StroopExp,2022.2.5,60.01097001
b2,stroop_trial_condtions/b2.xlsx,0.329333187,1,incongruent,YELLOW,green,s,distractors/2.wav,,,,,,,0,1,1,1,0,1,1,6,455.9503503,457.9497243,s,1,1.0535127,P6,2023-06-09_13h41.47.888,StroopExp,2022.2.5,60.01097001
b2,stroop_trial_condtions/b2.xlsx,0.713195007,1,congruent,GREEN,green,s,distractors/2.wav,,,,,,,0,1,1,1,0,2,2,10,460.4658817,,s,1,0.7073557,P6,2023-06-09_13h41.47.888,StroopExp,2022.2.5,60.01097001
b2,stroop_trial_condtions/b2.xlsx,0.04164908,1,incongruent,RED,yellow,f,distractors/4.wav,,,,,,,0,1,1,1,0,3,3,2,464.9825044,,f,1,1.0843478,P6,2023-06-09_13h41.47.888,StroopExp,2022.2.5,60.01097001
b2,stroop_trial_condtions/b2.xlsx,0.733185206,1,incongruent,GREEN,blue,d,distractors/4.wav,,,,,,,0,1,1,1,0,4,4,28,469.4961697,471.4952997,d,1,0.9585377,P6,2023-06-09_13h41.47.888,StroopExp,2022.2.5,60.01097001
b2,stroop_trial_condtions/b2.xlsx,0.42490795,1,congruent,GREEN,green,s,distractors/2.wav,,,,,,,0,1,1,1,0,5,5,4,473.9945481,475.9935344,s,1,0.717804,P6,2023-06-09_13h41.47.888,StroopExp,2022.2.5,60.01097001
b2,stroop_trial_condtions/b2.xlsx,0.107154682,1,incongruent,BLUE,green,s,distractors/3.wav,,,,,,,0,1,1,1,0,6,6,33,478.4936931,480.4933861,s,1,1.1361935,P6,2023-06-09_13h41.47.888,StroopExp,2022.2.5,60.01097001
b2,stroop_trial_condtions/b2.xlsx,0.361479091,1,congruent,GREEN,green,s,distractors/1.wav,,,,,,,0,1,1,1,0,7,7,17,482.9935762,484.993803,s,1,0.775605,P6,2023-06-09_13h41.47.888,StroopExp,2022.2.5,60.01097001
b2,stroop_trial_condtions/b2.xlsx,0.330833954,1,incongruent,BLUE,yellow,f,distractors/4.wav,,,,,,,0,1,1,1,0,8,8,5,487.4901874,489.4892564,f,1,0.8884788,P6,2023-06-09_13h41.47.888,StroopExp,2022.2.5,60.01097001
b2,stroop_trial_condtions/b2.xlsx,0.796267692,1,incongruent,RED,blue,d,distractors/4.wav,,,,,,,0,1,1,1,0,9,9,46,491.9880173,493.9879121,d,1,1.0777044,P6,2023-06-09_13h41.47.888,StroopExp,2022.2.5,60.01097001
b2,stroop_trial_condtions/b2.xlsx,0.629589964,1,congruent,RED,red,a,distractors/2.wav,,,,,,,0,1,1,1,0,10,10,11,496.4866663,498.4858813,a,1,0.8243124,P6,2023-06-09_13h41.47.888,StroopExp,2022.2.5,60.01097001
b2,stroop_trial_condtions/b2.xlsx,0.966821302,1,congruent,BLUE,blue,d,distractors/2.wav,,,,,,,0,1,1,1,0,11,11,21,501.0020758,503.0012245,d,1,0.9352077,P6,2023-06-09_13h41.47.888,StroopExp,2022.2.5,60.01097001
b2,stroop_trial_condtions/b2.xlsx,0.144418396,1,congruent,GREEN,green,s,distractors/1.wav,,,,,,,0,1,1,1,0,12,12,43,505.5002967,507.5000779,s,1,1.2950496,P6,2023-06-09_13h41.47.888,StroopExp,2022.2.5,60.01097001
b2,stroop_trial_condtions/b2.xlsx,0.211743172,1,congruent,YELLOW,yellow,f,distractors/2.wav,,,,,,,0,1,1,1,0,13,13,38,509.9988967,511.9982053,f,1,0.8506405,P6,2023-06-09_13h41.47.888,StroopExp,2022.2.5,60.01097001
b2,stroop_trial_condtions/b2.xlsx,0.25539718,1,congruent,YELLOW,yellow,f,distractors/1.wav,,,,,,,0,1,1,1,0,14,14,45,514.5307843,516.5298428,f,1,0.745822,P6,2023-06-09_13h41.47.888,StroopExp,2022.2.5,60.01097001
b2,stroop_trial_condtions/b2.xlsx,0.011991742,1,congruent,RED,red,a,distractors/4.wav,,,,,,,0,1,1,1,0,15,15,42,519.0459092,521.0448758,a,1,0.9768695,P6,2023-06-09_13h41.47.888,StroopExp,2022.2.5,60.01097001
b2,stroop_trial_condtions/b2.xlsx,0.666141953,1,congruent,RED,red,a,distractors/2.wav,,,,,,,0,1,1,1,0,16,16,3,523.5610353,525.5606607,a,1,0.7006712,P6,2023-06-09_13h41.47.888,StroopExp,2022.2.5,60.01097001
b2,stroop_trial_condtions/b2.xlsx,0.164948028,1,congruent,GREEN,green,s,distractors/4.wav,,,,,,,0,1,1,1,0,17,17,23,528.0441428,530.0440054,s,1,0.8604377,P6,2023-06-09_13h41.47.888,StroopExp,2022.2.5,60.01097001
b2,stroop_trial_condtions/b2.xlsx,0.566650633,1,incongruent,GREEN,yellow,f,distractors/3.wav,,,,,,,0,1,1,1,0,18,18,0,532.5276284,534.544091,f,1,0.8837116,P6,2023-06-09_13h41.47.888,StroopExp,2022.2.5,60.01097001
b2,stroop_trial_condtions/b2.xlsx,0.88570862,1,congruent,BLUE,blue,d,distractors/1.wav,,,,,,,0,1,1,1,0,19,19,16,537.0396862,539.0387476,d,1,0.9597321,P6,2023-06-09_13h41.47.888,StroopExp,2022.2.5,60.01097001
b2,stroop_trial_condtions/b2.xlsx,0.196366522,1,incongruent,GREEN,red,a,distractors/1.wav,,,,,,,0,1,1,1,0,20,20,9,541.5553116,,a,1,0.7827125,P6,2023-06-09_13h41.47.888,StroopExp,2022.2.5,60.01097001
b2,stroop_trial_condtions/b2.xlsx,0.155643688,1,incongruent,YELLOW,blue,d,distractors/3.wav,,,,,,,0,1,1,1,0,21,21,39,546.0701663,548.0693525,d,1,1.4765271,P6,2023-06-09_13h41.47.888,StroopExp,2022.2.5,60.01097001
b2,stroop_trial_condtions/b2.xlsx,0.483274464,1,congruent,YELLOW,yellow,f,distractors/1.wav,,,,,,,0,1,1,1,0,22,22,24,550.5682491,552.5678268,f,1,0.8229678,P6,2023-06-09_13h41.47.888,StroopExp,2022.2.5,60.01097001
b2,stroop_trial_condtions/b2.xlsx,0.324070625,1,congruent,YELLOW,yellow,f,distractors/3.wav,,,,,,,0,1,1,1,0,23,23,15,555.083648,557.0828195,f,1,0.7400188,P6,2023-06-09_13h41.47.888,StroopExp,2022.2.5,60.01097001
b2,stroop_trial_condtions/b2.xlsx,0.067305336,1,incongruent,BLUE,yellow,f,distractors/3.wav,,,,,,,0,1,1,1,0,24,24,26,559.5819657,561.5815705,f,1,0.9365811,P6,2023-06-09_13h41.47.888,StroopExp,2022.2.5,60.01097001
b2,stroop_trial_condtions/b2.xlsx,0.522476173,1,incongruent,RED,blue,d,distractors/1.wav,,,,,,,0,1,1,1,0,25,25,20,564.0969547,566.096503,d,1,1.4305489,P6,2023-06-09_13h41.47.888,StroopExp,2022.2.5,60.01097001
b2,stroop_trial_condtions/b2.xlsx,0.531759185,1,congruent,YELLOW,yellow,f,distractors/2.wav,,,,,,,0,1,1,1,0,26,26,34,568.5961096,570.5948027,f,1,0.820503,P6,2023-06-09_13h41.47.888,StroopExp,2022.2.5,60.01097001
b2,stroop_trial_condtions/b2.xlsx,0.776926078,1,incongruent,GREEN,blue,d,distractors/4.wav,,,,,,,0,1,1,1,0,27,27,22,573.0946008,575.0945841,d,1,0.8760569,P6,2023-06-09_13h41.47.888,StroopExp,2022.2.5,60.01097001
b2,stroop_trial_condtions/b2.xlsx,0.858613787,1,incongruent,YELLOW,blue,d,distractors/3.wav,,,,,,,0,1,1,1,0,28,28,44,577.5782574,579.5781664,d,1,1.0092038,P6,2023-06-09_13h41.47.888,StroopExp,2022.2.5,60.01097001
b2,stroop_trial_condtions/b2.xlsx,0.900567422,1,congruent,BLUE,blue,d,distractors/2.wav,,,,,,,0,1,1,1,0,29,29,30,582.0576698,584.057066,d,1,0.8112136,P6,2023-06-09_13h41.47.888,StroopExp,2022.2.5,60.01097001
b2,stroop_trial_condtions/b2.xlsx,0.090889572,1,congruent,RED,red,a,distractors/3.wav,,,,,,,0,1,1,1,0,30,30,41,586.5731373,,a,1,1.6320414,P6,2023-06-09_13h41.47.888,StroopExp,2022.2.5,60.01097001
b2,stroop_trial_condtions/b2.xlsx,0.108398141,1,incongruent,RED,green,s,distractors/1.wav,,,,,,,0,1,1,1,0,31,31,14,591.0715098,593.0703101,s,1,0.9324673,P6,2023-06-09_13h41.47.888,StroopExp,2022.2.5,60.01097001
b2,stroop_trial_condtions/b2.xlsx,0.128195372,1,incongruent,YELLOW,red,a,distractors/3.wav,,,,,,,0,1,1,1,0,32,32,35,595.5863354,597.5859743,a,1,0.9901723,P6,2023-06-09_13h41.47.888,StroopExp,2022.2.5,60.01097001
b2,stroop_trial_condtions/b2.xlsx,0.231567411,1,congruent,GREEN,green,s,distractors/4.wav,,,,,,,0,1,1,1,0,33,33,8,600.0848315,,s,1,0.7536962,P6,2023-06-09_13h41.47.888,StroopExp,2022.2.5,60.01097001
b2,stroop_trial_condtions/b2.xlsx,0.814062715,1,congruent,BLUE,blue,d,distractors/2.wav,,,,,,,0,1,1,1,0,34,34,36,604.6003323,606.5995223,f,0,1.0347934,P6,2023-06-09_13h41.47.888,StroopExp,2022.2.5,60.01097001
b2,stroop_trial_condtions/b2.xlsx,0.065023824,1,incongruent,GREEN,yellow,f,distractors/1.wav,,,,,,,0,1,1,1,0,35,35,7,609.0983006,611.0975162,f,1,1.3540414,P6,2023-06-09_13h41.47.888,StroopExp,2022.2.5,60.01097001
b2,stroop_trial_condtions/b2.xlsx,0.340063562,1,congruent,YELLOW,yellow,f,distractors/3.wav,,,,,,,0,1,1,1,0,36,36,12,613.6136058,615.6129529,f,1,0.8034023,P6,2023-06-09_13h41.47.888,StroopExp,2022.2.5,60.01097001
b2,stroop_trial_condtions/b2.xlsx,0.838430071,1,congruent,RED,red,a,distractors/1.wav,,,,,,,0,1,1,1,0,37,37,25,618.1123808,620.1118639,a,1,0.918326,P6,2023-06-09_13h41.47.888,StroopExp,2022.2.5,60.01097001
b2,stroop_trial_condtions/b2.xlsx,0.828978616,1,incongruent,RED,yellow,f,distractors/4.wav,,,,,,,0,1,1,1,0,38,38,31,622.6119653,624.612039,f,1,1.1340526,P6,2023-06-09_13h41.47.888,StroopExp,2022.2.5,60.01097001
b2,stroop_trial_condtions/b2.xlsx,0.500798324,1,incongruent,BLUE,green,s,distractors/1.wav,,,,,,,0,1,1,1,0,39,39,18,627.1120838,629.1122567,s,1,1.0675532,P6,2023-06-09_13h41.47.888,StroopExp,2022.2.5,60.01097001
b2,stroop_trial_condtions/b2.xlsx,0.767680624,1,congruent,BLUE,blue,d,distractors/3.wav,,,,,,,0,1,1,1,0,40,40,32,631.6076692,633.6062961,d,1,0.9824141,P6,2023-06-09_13h41.47.888,StroopExp,2022.2.5,60.01097001
b2,stroop_trial_condtions/b2.xlsx,0.488971465,1,incongruent,BLUE,red,a,distractors/4.wav,,,,,,,0,1,1,1,0,41,41,29,636.1227663,638.122153,a,1,1.0264957,P6,2023-06-09_13h41.47.888,StroopExp,2022.2.5,60.01097001
b2,stroop_trial_condtions/b2.xlsx,0.813514666,1,incongruent,GREEN,red,a,distractors/3.wav,,,,,,,0,1,1,1,0,42,42,40,640.6209257,642.6205263,a,1,0.8957925,P6,2023-06-09_13h41.47.888,StroopExp,2022.2.5,60.01097001
b2,stroop_trial_condtions/b2.xlsx,0.973471425,1,congruent,BLUE,blue,d,distractors/2.wav,,,,,,,0,1,1,1,0,43,43,1,645.1192927,647.1186881,d,1,0.9778529,P6,2023-06-09_13h41.47.888,StroopExp,2022.2.5,60.01097001
b2,stroop_trial_condtions/b2.xlsx,0.50307865,1,incongruent,YELLOW,green,s,distractors/4.wav,,,,,,,0,1,1,1,0,44,44,19,649.6349136,651.6339626,s,1,1.3734856,P6,2023-06-09_13h41.47.888,StroopExp,2022.2.5,60.01097001
b2,stroop_trial_condtions/b2.xlsx,0.295023129,1,incongruent,BLUE,red,a,distractors/1.wav,,,,,,,0,1,1,1,0,45,45,37,654.1498157,656.1493914,a,1,0.8384412,P6,2023-06-09_13h41.47.888,StroopExp,2022.2.5,60.01097001
b2,stroop_trial_condtions/b2.xlsx,0.087696882,1,incongruent,RED,green,s,distractors/3.wav,,,,,,,0,1,1,1,0,46,46,47,658.6645622,660.6645001,d,0,1.3616832,P6,2023-06-09_13h41.47.888,StroopExp,2022.2.5,60.01097001
b2,stroop_trial_condtions/b2.xlsx,0.034332485,1,incongruent,YELLOW,red,a,distractors/2.wav,,,,,,,0,1,1,1,0,47,47,13,663.1634918,665.1622846,a,1,1.0048543,P6,2023-06-09_13h41.47.888,StroopExp,2022.2.5,60.01097001
b3,stroop_trial_condtions/b1.xlsx,0.542994022,0,congruent,YELLOW,yellow,f,distractors/silence.wav,,,,,,,0,2,2,2,0,0,0,28,742.2531285,744.2524872,f,1,1.6336915,P6,2023-06-09_13h41.47.888,StroopExp,2022.2.5,60.01097001
b3,stroop_trial_condtions/b1.xlsx,0.870406961,0,congruent,YELLOW,yellow,f,distractors/silence.wav,,,,,,,0,2,2,2,0,1,1,11,746.752115,748.7507789,f,1,0.7925866,P6,2023-06-09_13h41.47.888,StroopExp,2022.2.5,60.01097001
b3,stroop_trial_condtions/b1.xlsx,0.68696849,0,congruent,YELLOW,yellow,f,distractors/silence.wav,,,,,,,0,2,2,2,0,2,2,45,751.2501254,753.2496336,f,1,0.6020211,P6,2023-06-09_13h41.47.888,StroopExp,2022.2.5,60.01097001
b3,stroop_trial_condtions/b1.xlsx,0.579491601,0,congruent,RED,red,a,distractors/silence.wav,,,,,,,0,2,2,2,0,3,3,47,755.7652173,757.7652772,a,1,0.7667422,P6,2023-06-09_13h41.47.888,StroopExp,2022.2.5,60.01097001
b3,stroop_trial_condtions/b1.xlsx,0.983636333,0,incongruent,RED,yellow,f,distractors/silence.wav,,,,,,,0,2,2,2,0,4,4,10,760.2812675,762.2804538,f,1,1.6332326,P6,2023-06-09_13h41.47.888,StroopExp,2022.2.5,60.01097001
b3,stroop_trial_condtions/b1.xlsx,0.660435133,0,congruent,GREEN,green,s,distractors/silence.wav,,,,,,,0,2,2,2,0,5,5,4,764.763219,766.7635254,s,1,0.7835546,P6,2023-06-09_13h41.47.888,StroopExp,2022.2.5,60.01097001
b3,stroop_trial_condtions/b1.xlsx,0.027168618,0,incongruent,RED,yellow,f,distractors/silence.wav,,,,,,,0,2,2,2,0,6,6,27,769.263703,771.2640503,f,1,0.9926659,P6,2023-06-09_13h41.47.888,StroopExp,2022.2.5,60.01097001
b3,stroop_trial_condtions/b1.xlsx,0.419315371,0,congruent,RED,red,a,distractors/silence.wav,,,,,,,0,2,2,2,0,7,7,38,773.7589463,775.7584758,a,1,0.785587,P6,2023-06-09_13h41.47.888,StroopExp,2022.2.5,60.01097001
b3,stroop_trial_condtions/b1.xlsx,0.191332161,0,congruent,GREEN,green,s,distractors/silence.wav,,,,,,,0,2,2,2,0,8,8,43,778.2743454,,s,1,0.8483376,P6,2023-06-09_13h41.47.888,StroopExp,2022.2.5,60.01097001
b3,stroop_trial_condtions/b1.xlsx,0.237396997,0,incongruent,GREEN,blue,d,distractors/silence.wav,,,,,,,0,2,2,2,0,9,9,18,782.7892285,784.7884826,d,1,0.6872894,P6,2023-06-09_13h41.47.888,StroopExp,2022.2.5,60.01097001
b3,stroop_trial_condtions/b1.xlsx,0.451597903,0,congruent,BLUE,blue,d,distractors/silence.wav,,,,,,,0,2,2,2,0,10,10,22,787.2877933,789.2868514,d,1,0.7880637,P6,2023-06-09_13h41.47.888,StroopExp,2022.2.5,60.01097001
b3,stroop_trial_condtions/b1.xlsx,0.256932032,0,congruent,BLUE,blue,d,distractors/silence.wav,,,,,,,0,2,2,2,0,11,11,30,791.7861759,793.7855492,d,1,0.7643595,P6,2023-06-09_13h41.47.888,StroopExp,2022.2.5,60.01097001
b3,stroop_trial_condtions/b1.xlsx,0.493018261,0,congruent,BLUE,blue,d,distractors/silence.wav,,,,,,,0,2,2,2,0,12,12,7,796.3016432,798.3007031,d,1,1.2608976,P6,2023-06-09_13h41.47.888,StroopExp,2022.2.5,60.01097001
b3,stroop_trial_condtions/b1.xlsx,0.729684234,0,incongruent,BLUE,red,a,distractors/silence.wav,,,,,,,0,2,2,2,0,13,13,29,800.8167163,802.8157548,a,1,1.0638811,P6,2023-06-09_13h41.47.888,StroopExp,2022.2.5,60.01097001
b3,stroop_trial_condtions/b1.xlsx,0.548087945,0,congruent,YELLOW,yellow,f,distractors/silence.wav,,,,,,,0,2,2,2,0,14,14,32,805.3150075,807.3142226,f,1,0.8508618,P6,2023-06-09_13h41.47.888,StroopExp,2022.2.5,60.01097001
b3,stroop_trial_condtions/b1.xlsx,0.199393364,0,congruent,YELLOW,yellow,f,distractors/silence.wav,,,,,,,0,2,2,2,0,15,15,23,809.83116,811.8307246,f,1,0.7133444,P6,2023-06-09_13h41.47.888,StroopExp,2022.2.5,60.01097001
b3,stroop_trial_condtions/b1.xlsx,0.733681542,0,incongruent,BLUE,green,s,distractors/silence.wav,,,,,,,0,2,2,2,0,16,16,15,814.3141245,,s,1,0.971996,P6,2023-06-09_13h41.47.888,StroopExp,2022.2.5,60.01097001
b3,stroop_trial_condtions/b1.xlsx,0.8328021,0,incongruent,GREEN,red,a,distractors/silence.wav,,,,,,,0,2,2,2,0,17,17,41,818.8268532,820.8265941,a,1,1.0690239,P6,2023-06-09_13h41.47.888,StroopExp,2022.2.5,60.01097001
b3,stroop_trial_condtions/b1.xlsx,0.647841101,0,incongruent,GREEN,red,a,distractors/silence.wav,,,,,,,0,2,2,2,0,18,18,6,823.32543,825.3243163,a,1,0.7665753,P6,2023-06-09_13h41.47.888,StroopExp,2022.2.5,60.01097001
b3,stroop_trial_condtions/b1.xlsx,0.01936095,0,incongruent,YELLOW,green,s,distractors/silence.wav,,,,,,,0,2,2,2,0,19,19,2,827.8407298,829.8402572,s,1,1.0032424,P6,2023-06-09_13h41.47.888,StroopExp,2022.2.5,60.01097001
b3,stroop_trial_condtions/b1.xlsx,0.667196906,0,incongruent,RED,green,s,distractors/silence.wav,,,,,,,0,2,2,2,0,20,20,36,832.3391096,834.3385634,s,1,1.034458,P6,2023-06-09_13h41.47.888,StroopExp,2022.2.5,60.01097001
b3,stroop_trial_condtions/b1.xlsx,0.939662107,0,congruent,RED,red,a,distractors/silence.wav,,,,,,,0,2,2,2,0,21,21,21,836.8541349,838.853431,a,1,0.9783186,P6,2023-06-09_13h41.47.888,StroopExp,2022.2.5,60.01097001
b3,stroop_trial_condtions/b1.xlsx,0.63243718,0,incongruent,RED,blue,d,distractors/silence.wav,,,,,,,0,2,2,2,0,22,22,19,841.3528328,843.3522569,d,1,1.8093224,P6,2023-06-09_13h41.47.888,StroopExp,2022.2.5,60.01097001
b3,stroop_trial_condtions/b1.xlsx,0.870893567,0,congruent,RED,red,a,distractors/silence.wav,,,,,,,0,2,2,2,0,23,23,9,845.8681444,847.8670882,a,1,0.8603401,P6,2023-06-09_13h41.47.888,StroopExp,2022.2.5,60.01097001
b3,stroop_trial_condtions/b1.xlsx,0.077117098,0,incongruent,BLUE,red,a,distractors/silence.wav,,,,,,,0,2,2,2,0,24,24,35,850.3832739,,a,1,0.8346017,P6,2023-06-09_13h41.47.888,StroopExp,2022.2.5,60.01097001
b3,stroop_trial_condtions/b1.xlsx,0.896952266,0,incongruent,YELLOW,blue,d,distractors/silence.wav,,,,,,,0,2,2,2,0,25,25,25,854.898126,856.8976435,d,1,1.6101102,P6,2023-06-09_13h41.47.888,StroopExp,2022.2.5,60.01097001
b3,stroop_trial_condtions/b1.xlsx,0.680507855,0,incongruent,GREEN,yellow,f,distractors/silence.wav,,,,,,,0,2,2,2,0,26,26,33,859.3809727,861.3818029,f,1,1.0338492,P6,2023-06-09_13h41.47.888,StroopExp,2022.2.5,60.01097001
b3,stroop_trial_condtions/b1.xlsx,0.935097843,0,incongruent,RED,blue,d,distractors/silence.wav,,,,,,,0,2,2,2,0,27,27,17,863.8646759,865.8782494,d,1,1.3339024,P6,2023-06-09_13h41.47.888,StroopExp,2022.2.5,60.01097001
b3,stroop_trial_condtions/b1.xlsx,0.922953448,0,congruent,RED,red,a,distractors/silence.wav,,,,,,,0,2,2,2,0,28,28,40,868.3762036,870.3757288,a,1,0.8061933,P6,2023-06-09_13h41.47.888,StroopExp,2022.2.5,60.01097001
b3,stroop_trial_condtions/b1.xlsx,0.072914577,0,congruent,BLUE,blue,d,distractors/silence.wav,,,,,,,0,2,2,2,0,29,29,3,872.876225,,d,1,0.9916541,P6,2023-06-09_13h41.47.888,StroopExp,2022.2.5,60.01097001
b3,stroop_trial_condtions/b1.xlsx,0.249190077,0,congruent,YELLOW,yellow,f,distractors/silence.wav,,,,,,,0,2,2,2,0,30,30,16,877.3902714,879.3901833,f,1,0.7956683,P6,2023-06-09_13h41.47.888,StroopExp,2022.2.5,60.01097001
b3,stroop_trial_condtions/b1.xlsx,0.004767374,0,incongruent,RED,green,s,distractors/silence.wav,,,,,,,0,2,2,2,0,31,31,14,881.8887892,883.8878367,s,1,1.0898396,P6,2023-06-09_13h41.47.888,StroopExp,2022.2.5,60.01097001
b3,stroop_trial_condtions/b1.xlsx,0.251874896,0,incongruent,GREEN,blue,d,distractors/silence.wav,,,,,,,0,2,2,2,0,32,32,37,886.387882,,d,1,1.4619454,P6,2023-06-09_13h41.47.888,StroopExp,2022.2.5,60.01097001
b3,stroop_trial_condtions/b1.xlsx,0.744564924,0,congruent,GREEN,green,s,distractors/silence.wav,,,,,,,0,2,2,2,0,33,33,42,890.9026207,892.9020308,s,1,0.967585,P6,2023-06-09_13h41.47.888,StroopExp,2022.2.5,60.01097001
b3,stroop_trial_condtions/b1.xlsx,0.571650714,0,incongruent,YELLOW,red,a,distractors/silence.wav,,,,,,,0,2,2,2,0,34,34,5,895.401053,897.4005826,a,1,1.008686,P6,2023-06-09_13h41.47.888,StroopExp,2022.2.5,60.01097001
b3,stroop_trial_condtions/b1.xlsx,0.153196184,0,incongruent,YELLOW,green,s,distractors/silence.wav,,,,,,,0,2,2,2,0,35,35,31,899.9161204,901.915517,s,1,1.0642602,P6,2023-06-09_13h41.47.888,StroopExp,2022.2.5,60.01097001
b3,stroop_trial_condtions/b1.xlsx,0.350328137,0,congruent,GREEN,green,s,distractors/silence.wav,,,,,,,0,2,2,2,0,36,36,20,904.3987105,906.398677,s,1,0.8432281,P6,2023-06-09_13h41.47.888,StroopExp,2022.2.5,60.01097001
b3,stroop_trial_condtions/b1.xlsx,0.583196525,0,congruent,BLUE,blue,d,distractors/silence.wav,,,,,,,0,2,2,2,0,37,37,44,908.8987739,910.8985297,d,1,0.8876026,P6,2023-06-09_13h41.47.888,StroopExp,2022.2.5,60.01097001
b3,stroop_trial_condtions/b1.xlsx,0.625212421,0,congruent,GREEN,green,s,distractors/silence.wav,,,,,,,0,2,2,2,0,38,38,24,913.4117576,915.4112728,s,1,0.7466102,P6,2023-06-09_13h41.47.888,StroopExp,2022.2.5,60.01097001
b3,stroop_trial_condtions/b1.xlsx,0.976569181,0,incongruent,YELLOW,blue,d,distractors/silence.wav,,,,,,,0,2,2,2,0,39,39,39,917.9099704,919.9105787,d,1,1.6760258,P6,2023-06-09_13h41.47.888,StroopExp,2022.2.5,60.01097001
b3,stroop_trial_condtions/b1.xlsx,0.830948331,0,incongruent,BLUE,green,s,distractors/silence.wav,,,,,,,0,2,2,2,0,40,40,46,922.4085267,924.4079372,s,1,0.9596377,P6,2023-06-09_13h41.47.888,StroopExp,2022.2.5,60.01097001
b3,stroop_trial_condtions/b1.xlsx,0.936669537,0,incongruent,GREEN,yellow,f,distractors/silence.wav,,,,,,,0,2,2,2,0,41,41,34,926.923455,928.9231301,f,1,1.1158813,P6,2023-06-09_13h41.47.888,StroopExp,2022.2.5,60.01097001
b3,stroop_trial_condtions/b1.xlsx,0.708976038,0,congruent,GREEN,green,s,distractors/silence.wav,,,,,,,0,2,2,2,0,42,42,8,931.4385197,933.4383051,s,1,0.9136195,P6,2023-06-09_13h41.47.888,StroopExp,2022.2.5,60.01097001
b3,stroop_trial_condtions/b1.xlsx,0.674408476,0,incongruent,BLUE,yellow,f,distractors/silence.wav,,,,,,,0,2,2,2,0,43,43,26,935.9536701,937.9532836,f,1,0.9671278,P6,2023-06-09_13h41.47.888,StroopExp,2022.2.5,60.01097001
b3,stroop_trial_condtions/b1.xlsx,0.976942146,0,congruent,BLUE,blue,d,distractors/silence.wav,,,,,,,0,2,2,2,0,44,44,13,940.4526199,,None,0,,P6,2023-06-09_13h41.47.888,StroopExp,2022.2.5,60.01097001
b3,stroop_trial_condtions/b1.xlsx,0.543070637,0,incongruent,BLUE,yellow,f,distractors/silence.wav,,,,,,,0,2,2,2,0,45,45,1,944.9687037,,f,1,1.0617925,P6,2023-06-09_13h41.47.888,StroopExp,2022.2.5,60.01097001
b3,stroop_trial_condtions/b1.xlsx,0.971858016,0,congruent,RED,red,a,distractors/silence.wav,,,,,,,0,2,2,2,0,46,46,0,949.482319,951.4824173,a,1,0.8234013,P6,2023-06-09_13h41.47.888,StroopExp,2022.2.5,60.01097001
b3,stroop_trial_condtions/b1.xlsx,0.401782254,0,incongruent,YELLOW,red,a,distractors/silence.wav,,,,,,,0,2,2,2,0,47,47,12,953.965818,955.9660039,a,1,0.9098571,P6,2023-06-09_13h41.47.888,StroopExp,2022.2.5,60.01097001
b4,stroop_trial_condtions/b3.xlsx,0.552411576,1,incongruent,GREEN,blue,d,distractors/4.wav,,,,,,,0,3,3,3,0,0,0,15,1054.116896,,d,1,1.1025881,P6,2023-06-09_13h41.47.888,StroopExp,2022.2.5,60.01097001
b4,stroop_trial_condtions/b3.xlsx,0.304890161,1,incongruent,BLUE,green,s,distractors/1.wav,,,,,,,0,3,3,3,0,1,1,21,1058.628704,1060.627938,s,1,0.8264908,P6,2023-06-09_13h41.47.888,StroopExp,2022.2.5,60.01097001
b4,stroop_trial_condtions/b3.xlsx,0.422027805,1,incongruent,YELLOW,green,s,distractors/2.wav,,,,,,,0,3,3,3,0,2,2,33,1063.144383,,d,0,0.8487203,P6,2023-06-09_13h41.47.888,StroopExp,2022.2.5,60.01097001
b4,stroop_trial_condtions/b3.xlsx,0.229480302,1,congruent,YELLOW,yellow,f,distractors/3.wav,,,,,,,0,3,3,3,0,3,3,0,1067.65906,,f,1,0.876982,P6,2023-06-09_13h41.47.888,StroopExp,2022.2.5,60.01097001
b4,stroop_trial_condtions/b3.xlsx,0.264144016,1,congruent,RED,red,a,distractors/2.wav,,,,,,,0,3,3,3,0,4,4,6,1072.174274,,a,1,0.7793795,P6,2023-06-09_13h41.47.888,StroopExp,2022.2.5,60.01097001
b4,stroop_trial_condtions/b3.xlsx,0.629652757,1,incongruent,GREEN,red,a,distractors/4.wav,,,,,,,0,3,3,3,0,5,5,24,1076.689057,1078.688444,a,1,0.8351186,P6,2023-06-09_13h41.47.888,StroopExp,2022.2.5,60.01097001
b4,stroop_trial_condtions/b3.xlsx,0.600008433,1,congruent,BLUE,blue,d,distractors/3.wav,,,,,,,0,3,3,3,0,6,6,42,1081.187943,1083.186896,d,1,1.0712108,P6,2023-06-09_13h41.47.888,StroopExp,2022.2.5,60.01097001
b4,stroop_trial_condtions/b3.xlsx,0.759150938,1,congruent,YELLOW,yellow,f,distractors/3.wav,,,,,,,0,3,3,3,0,7,7,36,1085.686438,1087.685105,f,1,0.8095199,P6,2023-06-09_13h41.47.888,StroopExp,2022.2.5,60.01097001
b4,stroop_trial_condtions/b3.xlsx,0.509195284,1,congruent,RED,red,a,distractors/3.wav,,,,,,,0,3,3,3,0,8,8,23,1090.184317,1092.183777,a,1,0.7889459,P6,2023-06-09_13h41.47.888,StroopExp,2022.2.5,60.01097001
b4,stroop_trial_condtions/b3.xlsx,0.22157821,1,incongruent,RED,green,s,distractors/4.wav,,,,,,,0,3,3,3,0,9,9,26,1094.683984,1096.684348,s,1,0.829753,P6,2023-06-09_13h41.47.888,StroopExp,2022.2.5,60.01097001
b4,stroop_trial_condtions/b3.xlsx,0.504266909,1,congruent,BLUE,blue,d,distractors/2.wav,,,,,,,0,3,3,3,0,10,10,25,1099.167294,1101.180654,d,1,0.9405566,P6,2023-06-09_13h41.47.888,StroopExp,2022.2.5,60.01097001
b4,stroop_trial_condtions/b3.xlsx,0.749087818,1,congruent,GREEN,green,s,distractors/2.wav,,,,,,,0,3,3,3,0,11,11,46,1103.680199,1105.679638,s,1,0.8115326,P6,2023-06-09_13h41.47.888,StroopExp,2022.2.5,60.01097001
b4,stroop_trial_condtions/b3.xlsx,0.801341495,1,incongruent,BLUE,yellow,f,distractors/4.wav,,,,,,,0,3,3,3,0,12,12,4,1108.178383,,f,1,0.9334503,P6,2023-06-09_13h41.47.888,StroopExp,2022.2.5,60.01097001
b4,stroop_trial_condtions/b3.xlsx,0.139842966,1,congruent,GREEN,green,s,distractors/2.wav,,,,,,,0,3,3,3,0,13,13,8,1112.693942,1114.693223,s,1,0.8459063,P6,2023-06-09_13h41.47.888,StroopExp,2022.2.5,60.01097001
b4,stroop_trial_condtions/b3.xlsx,0.677170745,1,congruent,GREEN,green,s,distractors/1.wav,,,,,,,0,3,3,3,0,14,14,5,1117.192014,1119.191578,s,1,0.7759851,P6,2023-06-09_13h41.47.888,StroopExp,2022.2.5,60.01097001
b4,stroop_trial_condtions/b3.xlsx,0.854349554,1,congruent,YELLOW,yellow,f,distractors/3.wav,,,,,,,0,3,3,3,0,15,15,27,1121.707297,1123.706296,f,1,0.7440865,P6,2023-06-09_13h41.47.888,StroopExp,2022.2.5,60.01097001
b4,stroop_trial_condtions/b3.xlsx,0.488087669,1,congruent,RED,red,a,distractors/4.wav,,,,,,,0,3,3,3,0,16,16,38,1126.206083,1128.205294,a,1,0.8256622,P6,2023-06-09_13h41.47.888,StroopExp,2022.2.5,60.01097001
b4,stroop_trial_condtions/b3.xlsx,0.425610132,1,congruent,BLUE,blue,d,distractors/4.wav,,,,,,,0,3,3,3,0,17,17,9,1130.720655,1132.720282,d,1,0.7949264,P6,2023-06-09_13h41.47.888,StroopExp,2022.2.5,60.01097001
b4,stroop_trial_condtions/b3.xlsx,0.10397583,1,incongruent,BLUE,green,s,distractors/1.wav,,,,,,,0,3,3,3,0,18,18,47,1135.219235,1137.218389,s,1,0.9959701,P6,2023-06-09_13h41.47.888,StroopExp,2022.2.5,60.01097001
b4,stroop_trial_condtions/b3.xlsx,0.388628644,1,congruent,RED,red,a,distractors/4.wav,,,,,,,0,3,3,3,0,19,19,17,1139.717867,1141.718135,a,1,1.1337956,P6,2023-06-09_13h41.47.888,StroopExp,2022.2.5,60.01097001
b4,stroop_trial_condtions/b3.xlsx,0.490953462,1,congruent,GREEN,green,s,distractors/4.wav,,,,,,,0,3,3,3,0,20,20,1,1144.217943,1146.218177,s,1,0.855873,P6,2023-06-09_13h41.47.888,StroopExp,2022.2.5,60.01097001
b4,stroop_trial_condtions/b3.xlsx,0.56899076,1,congruent,BLUE,blue,d,distractors/3.wav,,,,,,,0,3,3,3,0,21,21,28,1148.71852,,d,1,1.1674657,P6,2023-06-09_13h41.47.888,StroopExp,2022.2.5,60.01097001
b4,stroop_trial_condtions/b3.xlsx,0.927706406,1,incongruent,BLUE,red,a,distractors/1.wav,,,,,,,0,3,3,3,0,22,22,32,1153.229864,1155.229236,a,1,0.9116953,P6,2023-06-09_13h41.47.888,StroopExp,2022.2.5,60.01097001
b4,stroop_trial_condtions/b3.xlsx,0.521565887,1,incongruent,YELLOW,blue,d,distractors/3.wav,,,,,,,0,3,3,3,0,23,23,14,1157.744775,1159.74414,d,1,1.0627804,P6,2023-06-09_13h41.47.888,StroopExp,2022.2.5,60.01097001
b4,stroop_trial_condtions/b3.xlsx,0.289836119,1,incongruent,GREEN,yellow,f,distractors/2.wav,,,,,,,0,3,3,3,0,24,24,20,1162.243441,1164.243001,f,1,0.9054731,P6,2023-06-09_13h41.47.888,StroopExp,2022.2.5,60.01097001
b4,stroop_trial_condtions/b3.xlsx,0.217828855,1,incongruent,GREEN,blue,d,distractors/1.wav,,,,,,,0,3,3,3,0,25,25,44,1166.74204,,d,1,1.1077042,P6,2023-06-09_13h41.47.888,StroopExp,2022.2.5,60.01097001
b4,stroop_trial_condtions/b3.xlsx,0.801680892,1,incongruent,YELLOW,red,a,distractors/3.wav,,,,,,,0,3,3,3,0,26,26,35,1171.257156,,a,1,0.9897958,P6,2023-06-09_13h41.47.888,StroopExp,2022.2.5,60.01097001
b4,stroop_trial_condtions/b3.xlsx,0.017634479,1,incongruent,RED,blue,d,distractors/3.wav,,,,,,,0,3,3,3,0,27,27,31,1175.755542,1177.754883,d,1,1.4608269,P6,2023-06-09_13h41.47.888,StroopExp,2022.2.5,60.01097001
b4,stroop_trial_condtions/b3.xlsx,0.337871903,1,incongruent,RED,yellow,f,distractors/4.wav,,,,,,,0,3,3,3,0,28,28,19,1180.287328,1182.286768,f,1,1.0863825,P6,2023-06-09_13h41.47.888,StroopExp,2022.2.5,60.01097001
b4,stroop_trial_condtions/b3.xlsx,0.585762683,1,congruent,GREEN,green,s,distractors/2.wav,,,,,,,0,3,3,3,0,29,29,18,1184.802563,1186.801733,s,1,0.9731513,P6,2023-06-09_13h41.47.888,StroopExp,2022.2.5,60.01097001
b4,stroop_trial_condtions/b3.xlsx,0.457447166,1,congruent,RED,red,a,distractors/1.wav,,,,,,,0,3,3,3,0,30,30,41,1189.302041,1191.302227,a,1,0.9330905,P6,2023-06-09_13h41.47.888,StroopExp,2022.2.5,60.01097001
b4,stroop_trial_condtions/b3.xlsx,0.801010583,1,incongruent,RED,blue,d,distractors/2.wav,,,,,,,0,3,3,3,0,31,31,13,1193.802361,1195.802218,d,1,1.0497001,P6,2023-06-09_13h41.47.888,StroopExp,2022.2.5,60.01097001
b4,stroop_trial_condtions/b3.xlsx,0.512136417,1,congruent,BLUE,blue,d,distractors/3.wav,,,,,,,0,3,3,3,0,32,32,40,1198.298097,1200.296786,d,1,0.9398158,P6,2023-06-09_13h41.47.888,StroopExp,2022.2.5,60.01097001
b4,stroop_trial_condtions/b3.xlsx,0.055781084,1,incongruent,RED,yellow,f,distractors/4.wav,,,,,,,0,3,3,3,0,33,33,43,1202.796519,1204.795407,f,1,1.0511789,P6,2023-06-09_13h41.47.888,StroopExp,2022.2.5,60.01097001
b4,stroop_trial_condtions/b3.xlsx,0.794314825,1,incongruent,BLUE,red,a,distractors/1.wav,,,,,,,0,3,3,3,0,34,34,30,1207.311437,,a,1,0.923867,P6,2023-06-09_13h41.47.888,StroopExp,2022.2.5,60.01097001
b4,stroop_trial_condtions/b3.xlsx,0.965444972,1,congruent,BLUE,blue,d,distractors/2.wav,,,,,,,0,3,3,3,0,35,35,2,1211.826698,1213.825687,d,1,0.9228648,P6,2023-06-09_13h41.47.888,StroopExp,2022.2.5,60.01097001
b4,stroop_trial_condtions/b3.xlsx,0.6103536,1,incongruent,RED,green,s,distractors/2.wav,,,,,,,0,3,3,3,0,36,36,16,1216.324666,1218.324195,s,1,1.0349602,P6,2023-06-09_13h41.47.888,StroopExp,2022.2.5,60.01097001
b4,stroop_trial_condtions/b3.xlsx,0.507803195,1,congruent,YELLOW,yellow,f,distractors/3.wav,,,,,,,0,3,3,3,0,37,37,45,1220.82356,1222.822608,f,1,0.8040735,P6,2023-06-09_13h41.47.888,StroopExp,2022.2.5,60.01097001
b4,stroop_trial_condtions/b3.xlsx,0.469997319,1,incongruent,YELLOW,red,a,distractors/2.wav,,,,,,,0,3,3,3,0,38,38,34,1225.338717,1227.338068,a,1,0.9447249,P6,2023-06-09_13h41.47.888,StroopExp,2022.2.5,60.01097001
b4,stroop_trial_condtions/b3.xlsx,0.741548313,1,congruent,YELLOW,yellow,f,distractors/1.wav,,,,,,,0,3,3,3,0,39,39,22,1229.837026,1231.836567,f,1,0.8183249,P6,2023-06-09_13h41.47.888,StroopExp,2022.2.5,60.01097001
b4,stroop_trial_condtions/b3.xlsx,0.253236555,1,congruent,GREEN,green,s,distractors/1.wav,,,,,,,0,3,3,3,0,40,40,10,1234.335584,1236.335966,s,1,0.7777833,P6,2023-06-09_13h41.47.888,StroopExp,2022.2.5,60.01097001
b4,stroop_trial_condtions/b3.xlsx,0.010072896,1,congruent,RED,red,a,distractors/4.wav,,,,,,,0,3,3,3,0,41,41,37,1238.819268,1240.819192,a,1,0.9002921,P6,2023-06-09_13h41.47.888,StroopExp,2022.2.5,60.01097001
b4,stroop_trial_condtions/b3.xlsx,0.999512659,1,incongruent,GREEN,yellow,f,distractors/1.wav,,,,,,,0,3,3,3,0,42,42,39,1243.302638,1245.315508,f,1,1.0663295,P6,2023-06-09_13h41.47.888,StroopExp,2022.2.5,60.01097001
b4,stroop_trial_condtions/b3.xlsx,0.091035715,1,incongruent,BLUE,yellow,f,distractors/3.wav,,,,,,,0,3,3,3,0,43,43,7,1247.814426,,f,1,0.8267745,P6,2023-06-09_13h41.47.888,StroopExp,2022.2.5,60.01097001
b4,stroop_trial_condtions/b3.xlsx,0.468515905,1,incongruent,YELLOW,green,s,distractors/1.wav,,,,,,,0,3,3,3,0,44,44,3,1252.329375,1254.328313,s,1,0.9063573,P6,2023-06-09_13h41.47.888,StroopExp,2022.2.5,60.01097001
b4,stroop_trial_condtions/b3.xlsx,0.871165656,1,congruent,YELLOW,yellow,f,distractors/1.wav,,,,,,,0,3,3,3,0,45,45,11,1256.827901,1258.827413,f,1,0.9072546,P6,2023-06-09_13h41.47.888,StroopExp,2022.2.5,60.01097001
b4,stroop_trial_condtions/b3.xlsx,0.214405789,1,incongruent,GREEN,red,a,distractors/4.wav,,,,,,,0,3,3,3,0,46,46,29,1261.342674,1263.342318,a,1,0.938256,P6,2023-06-09_13h41.47.888,StroopExp,2022.2.5,60.01097001
b4,stroop_trial_condtions/b3.xlsx,0.585825436,1,incongruent,YELLOW,blue,d,distractors/2.wav,,,,,,,0,3,3,3,0,47,47,12,1265.858415,,d,1,1.0629454,P6,2023-06-09_13h41.47.888,StroopExp,2022.2.5,60.01097001
