block_number,location,Index,has_distraction,trial_type,word,color,correct_key,distraction_file_name,practice_trials_4X5.thisRepN,practice_trials_4X5.thisTrialN,practice_trials_4X5.thisN,practice_trials_4X5.thisIndex,blocks.thisRepN,blocks.thisTrialN,blocks.thisN,blocks.thisIndex,trials.thisRepN,trials.thisTrialN,trials.thisN,trials.thisIndex,key_stroop.started,key_stroop.stopped,key_stroop.keys,key_stroop.corr,key_stroop.rt,participant,date,expName,psychopyVersion,frameRate,
b1,stroop_trial_condtions/b1.xlsx,0.5794916014066622,0,congruent,RED,red,a,distractors/silence.wav,,,,,0,0,0,0,0,0,0,47,225.19050060000018,227.18985900000007,a,1,0.9664755999997396,P7,2023-06-09_14h47.43.260,StroopExp,2022.2.5,59.86722646520437,
b1,stroop_trial_condtions/b1.xlsx,0.7089760381977726,0,congruent,GREEN,green,s,distractors/silence.wav,,,,,0,0,0,0,0,1,1,8,229.70591860000013,231.70480550000002,s,1,0.9891229999998359,P7,2023-06-09_14h47.43.260,StroopExp,2022.2.5,59.86722646520437,
b1,stroop_trial_condtions/b1.xlsx,0.6869684900918854,0,congruent,YELLOW,yellow,f,distractors/silence.wav,,,,,0,0,0,0,0,2,2,45,234.22075529999984,236.2203058,f,1,0.8983980000002703,P7,2023-06-09_14h47.43.260,StroopExp,2022.2.5,59.86722646520437,
b1,stroop_trial_condtions/b1.xlsx,0.870406961301538,0,congruent,YELLOW,yellow,f,distractors/silence.wav,,,,,0,0,0,0,0,3,3,11,238.7360303999999,240.73555269999997,f,1,0.6358132999998816,P7,2023-06-09_14h47.43.260,StroopExp,2022.2.5,59.86722646520437,
b1,stroop_trial_condtions/b1.xlsx,0.45159790316989123,0,congruent,BLUE,blue,d,distractors/silence.wav,,,,,0,0,0,0,0,4,4,22,243.25139089999993,,d,1,1.1236024999998335,P7,2023-06-09_14h47.43.260,StroopExp,2022.2.5,59.86722646520437,
b1,stroop_trial_condtions/b1.xlsx,0.8969522657404946,0,incongruent,YELLOW,blue,d,distractors/silence.wav,,,,,0,0,0,0,0,5,5,25,247.7663149,249.76645569999982,d,1,0.8706591000000117,P7,2023-06-09_14h47.43.260,StroopExp,2022.2.5,59.86722646520437,
b1,stroop_trial_condtions/b1.xlsx,0.24919007739364696,0,congruent,YELLOW,yellow,f,distractors/silence.wav,,,,,0,0,0,0,0,6,6,16,252.24913939999988,254.24961660000008,f,1,0.6087633000001915,P7,2023-06-09_14h47.43.260,StroopExp,2022.2.5,59.86722646520437,
b1,stroop_trial_condtions/b1.xlsx,0.7445649241064577,0,congruent,GREEN,green,s,distractors/silence.wav,,,,,0,0,0,0,0,7,7,42,256.7328800999999,258.7460213999998,s,1,1.0520956999998816,P7,2023-06-09_14h47.43.260,StroopExp,2022.2.5,59.86722646520437,
b1,stroop_trial_condtions/b1.xlsx,0.15319618406080382,0,incongruent,YELLOW,green,s,distractors/silence.wav,,,,,0,0,0,0,0,8,8,31,261.2450088999999,263.2447089000002,s,1,0.7927576999995836,P7,2023-06-09_14h47.43.260,StroopExp,2022.2.5,59.86722646520437,
b1,stroop_trial_condtions/b1.xlsx,0.6252124205445847,0,congruent,GREEN,green,s,distractors/silence.wav,,,,,0,0,0,0,0,9,9,24,265.7435596,267.743113,s,1,0.6880965000000288,P7,2023-06-09_14h47.43.260,StroopExp,2022.2.5,59.86722646520437,
b1,stroop_trial_condtions/b1.xlsx,0.9836363330757953,0,incongruent,RED,yellow,f,distractors/silence.wav,,,,,0,0,0,0,0,10,10,10,270.2586934000001,272.25823720000017,f,1,1.1906403999996655,P7,2023-06-09_14h47.43.260,StroopExp,2022.2.5,59.86722646520437,
b1,stroop_trial_condtions/b1.xlsx,0.0729145768917061,0,congruent,BLUE,blue,d,distractors/silence.wav,,,,,0,0,0,0,0,11,11,3,274.7732777000001,276.77254700000003,d,1,0.7764191999999639,P7,2023-06-09_14h47.43.260,StroopExp,2022.2.5,59.86722646520437,
b1,stroop_trial_condtions/b1.xlsx,0.8708935669205526,0,congruent,RED,red,a,distractors/silence.wav,,,,,0,0,0,0,0,12,12,9,279.27252499999986,,a,1,0.7765879999997196,P7,2023-06-09_14h47.43.260,StroopExp,2022.2.5,59.86722646520437,
b1,stroop_trial_condtions/b1.xlsx,0.4930182611236916,0,congruent,BLUE,blue,d,distractors/silence.wav,,,,,0,0,0,0,0,13,13,7,283.78731229999994,285.78630310000017,d,1,1.084320100000241,P7,2023-06-09_14h47.43.260,StroopExp,2022.2.5,59.86722646520437,
b1,stroop_trial_condtions/b1.xlsx,0.35032813659302076,0,congruent,GREEN,green,s,distractors/silence.wav,,,,,0,0,0,0,0,14,14,20,288.3024193000001,290.3018919000001,s,1,0.5935223999999835,P7,2023-06-09_14h47.43.260,StroopExp,2022.2.5,59.86722646520437,
b1,stroop_trial_condtions/b1.xlsx,0.6478411009005055,0,incongruent,GREEN,red,a,distractors/silence.wav,,,,,0,0,0,0,0,15,15,6,292.80118589999984,294.80014059999985,a,1,1.0164657000000261,P7,2023-06-09_14h47.43.260,StroopExp,2022.2.5,59.86722646520437,
b1,stroop_trial_condtions/b1.xlsx,0.9769421455207146,0,congruent,BLUE,blue,d,distractors/silence.wav,,,,,0,0,0,0,0,16,16,13,297.2997231999998,299.300033,d,1,0.9474181999999018,P7,2023-06-09_14h47.43.260,StroopExp,2022.2.5,59.86722646520437,
b1,stroop_trial_condtions/b1.xlsx,0.07711709789910381,0,incongruent,BLUE,red,a,distractors/silence.wav,,,,,0,0,0,0,0,17,17,35,301.7836563000001,303.7837642999998,a,1,0.8205631000000722,P7,2023-06-09_14h47.43.260,StroopExp,2022.2.5,59.86722646520437,
b1,stroop_trial_condtions/b1.xlsx,0.7336815417486652,0,incongruent,BLUE,green,s,distractors/silence.wav,,,,,0,0,0,0,0,18,18,15,306.29626929999995,308.296421,s,1,0.6857317999997576,P7,2023-06-09_14h47.43.260,StroopExp,2022.2.5,59.86722646520437,
b1,stroop_trial_condtions/b1.xlsx,0.6671969061834688,0,incongruent,RED,green,s,distractors/silence.wav,,,,,0,0,0,0,0,19,19,36,310.7948246000001,312.7947426999999,s,1,0.7384154000001217,P7,2023-06-09_14h47.43.260,StroopExp,2022.2.5,59.86722646520437,
b1,stroop_trial_condtions/b1.xlsx,0.9396621068767484,0,congruent,RED,red,a,distractors/silence.wav,,,,,0,0,0,0,0,20,20,21,315.30981919999977,317.3093531999998,a,1,0.8378734000002623,P7,2023-06-09_14h47.43.260,StroopExp,2022.2.5,59.86722646520437,
b1,stroop_trial_condtions/b1.xlsx,0.674408475762876,0,incongruent,BLUE,yellow,f,distractors/silence.wav,,,,,0,0,0,0,0,21,21,26,319.8085377000002,321.8077186999999,f,1,1.081338599999981,P7,2023-06-09_14h47.43.260,StroopExp,2022.2.5,59.86722646520437,
b1,stroop_trial_condtions/b1.xlsx,0.5831965246907577,0,congruent,BLUE,blue,d,distractors/silence.wav,,,,,0,0,0,0,0,22,22,44,324.3062748000002,326.3062341,d,1,0.8500378999997338,P7,2023-06-09_14h47.43.260,StroopExp,2022.2.5,59.86722646520437,
b1,stroop_trial_condtions/b1.xlsx,0.5480879446861618,0,congruent,YELLOW,yellow,f,distractors/silence.wav,,,,,0,0,0,0,0,23,23,32,328.82179510000014,330.8213436000001,f,1,0.8438108000000284,P7,2023-06-09_14h47.43.260,StroopExp,2022.2.5,59.86722646520437,
b1,stroop_trial_condtions/b1.xlsx,0.9350978434171133,0,incongruent,RED,blue,d,distractors/silence.wav,,,,,0,0,0,0,0,24,24,17,333.3369477000001,335.3362379,d,1,0.9722217000003184,P7,2023-06-09_14h47.43.260,StroopExp,2022.2.5,59.86722646520437,
b1,stroop_trial_condtions/b1.xlsx,0.4017822535991459,0,incongruent,YELLOW,red,a,distractors/silence.wav,,,,,0,0,0,0,0,25,25,12,337.83559030000015,339.8348627999999,a,1,0.8780584000000999,P7,2023-06-09_14h47.43.260,StroopExp,2022.2.5,59.86722646520437,
b1,stroop_trial_condtions/b1.xlsx,0.9765691810900071,0,incongruent,YELLOW,blue,d,distractors/silence.wav,,,,,0,0,0,0,0,26,26,39,342.3342456999999,344.3342306999998,d,1,0.7507888999998613,P7,2023-06-09_14h47.43.260,StroopExp,2022.2.5,59.86722646520437,
b1,stroop_trial_condtions/b1.xlsx,0.680507855371767,0,incongruent,GREEN,yellow,f,distractors/silence.wav,,,,,0,0,0,0,0,27,27,33,346.8172233999999,348.8177541,f,1,0.7881024999996953,P7,2023-06-09_14h47.43.260,StroopExp,2022.2.5,59.86722646520437,
b1,stroop_trial_condtions/b1.xlsx,0.19133216126723684,0,congruent,GREEN,green,s,distractors/silence.wav,,,,,0,0,0,0,0,28,28,43,351.30113489999985,353.3010886000002,s,1,0.6759750000001077,P7,2023-06-09_14h47.43.260,StroopExp,2022.2.5,59.86722646520437,
b1,stroop_trial_condtions/b1.xlsx,0.19939336354685822,0,congruent,YELLOW,yellow,f,distractors/silence.wav,,,,,0,0,0,0,0,29,29,23,355.7969283000002,,f,1,0.922648400000071,P7,2023-06-09_14h47.43.260,StroopExp,2022.2.5,59.86722646520437,
b1,stroop_trial_condtions/b1.xlsx,0.23739699734220088,0,incongruent,GREEN,blue,d,distractors/silence.wav,,,,,0,0,0,0,0,30,30,18,360.3114383000002,362.3103514999998,d,1,0.8861566000000494,P7,2023-06-09_14h47.43.260,StroopExp,2022.2.5,59.86722646520437,
b1,stroop_trial_condtions/b1.xlsx,0.019360950480176498,0,incongruent,YELLOW,green,s,distractors/silence.wav,,,,,0,0,0,0,0,31,31,2,364.81029660000013,,s,1,0.6447244000000865,P7,2023-06-09_14h47.43.260,StroopExp,2022.2.5,59.86722646520437,
b1,stroop_trial_condtions/b1.xlsx,0.5716507137496009,0,incongruent,YELLOW,red,a,distractors/silence.wav,,,,,0,0,0,0,0,32,32,5,369.32495530000006,371.3246871000001,a,1,1.638766200000191,P7,2023-06-09_14h47.43.260,StroopExp,2022.2.5,59.86722646520437,
b1,stroop_trial_condtions/b1.xlsx,0.027168618358859753,0,incongruent,RED,yellow,f,distractors/silence.wav,,,,,0,0,0,0,0,33,33,27,373.8403954999999,,f,1,1.0109498000001622,P7,2023-06-09_14h47.43.260,StroopExp,2022.2.5,59.86722646520437,
b1,stroop_trial_condtions/b1.xlsx,0.5429940223524143,0,congruent,YELLOW,yellow,f,distractors/silence.wav,,,,,0,0,0,0,0,34,34,28,378.35523680000006,380.35457670000005,f,1,0.6783703999999489,P7,2023-06-09_14h47.43.260,StroopExp,2022.2.5,59.86722646520437,
b1,stroop_trial_condtions/b1.xlsx,0.632437180452533,0,incongruent,RED,blue,d,distractors/silence.wav,,,,,0,0,0,0,0,35,35,19,382.85341130000006,384.8529818000002,d,1,1.3278812999997172,P7,2023-06-09_14h47.43.260,StroopExp,2022.2.5,59.86722646520437,
b1,stroop_trial_condtions/b1.xlsx,0.5430706368691302,0,incongruent,BLUE,yellow,f,distractors/silence.wav,,,,,0,0,0,0,0,36,36,1,387.3523934,389.35114669999984,f,1,0.8546407999997427,P7,2023-06-09_14h47.43.260,StroopExp,2022.2.5,59.86722646520437,
b1,stroop_trial_condtions/b1.xlsx,0.922953448054004,0,congruent,RED,red,a,distractors/silence.wav,,,,,0,0,0,0,0,37,37,40,391.8348034999999,393.83514479999985,a,1,0.7044102999998358,P7,2023-06-09_14h47.43.260,StroopExp,2022.2.5,59.86722646520437,
b1,stroop_trial_condtions/b1.xlsx,0.41931537120590046,0,congruent,RED,red,a,distractors/silence.wav,,,,,0,0,0,0,0,38,38,38,396.3349272999999,398.3347611999998,a,1,0.7241228999996565,P7,2023-06-09_14h47.43.260,StroopExp,2022.2.5,59.86722646520437,
b1,stroop_trial_condtions/b1.xlsx,0.25693203245358776,0,congruent,BLUE,blue,d,distractors/silence.wav,,,,,0,0,0,0,0,39,39,30,400.8311961999998,402.8304339000001,d,1,1.0743106999998417,P7,2023-06-09_14h47.43.260,StroopExp,2022.2.5,59.86722646520437,
b1,stroop_trial_condtions/b1.xlsx,0.7296842337577286,0,incongruent,BLUE,red,a,distractors/silence.wav,,,,,0,0,0,0,0,40,40,29,405.34602300000006,407.3458147000001,a,1,1.0833714000000327,P7,2023-06-09_14h47.43.260,StroopExp,2022.2.5,59.86722646520437,
b1,stroop_trial_condtions/b1.xlsx,0.8309483305278348,0,incongruent,BLUE,green,s,distractors/silence.wav,,,,,0,0,0,0,0,41,41,46,409.8614471000001,411.86074259999987,s,1,0.8860084000002644,P7,2023-06-09_14h47.43.260,StroopExp,2022.2.5,59.86722646520437,
b1,stroop_trial_condtions/b1.xlsx,0.9366695365255577,0,incongruent,GREEN,yellow,f,distractors/silence.wav,,,,,0,0,0,0,0,42,42,34,414.3599276,416.35930129999997,f,1,0.7595010000000002,P7,2023-06-09_14h47.43.260,StroopExp,2022.2.5,59.86722646520437,
b1,stroop_trial_condtions/b1.xlsx,0.2518748957010212,0,incongruent,GREEN,blue,d,distractors/silence.wav,,,,,0,0,0,0,0,43,43,37,418.8749972999999,420.87451710000005,d,1,1.3446444999999585,P7,2023-06-09_14h47.43.260,StroopExp,2022.2.5,59.86722646520437,
b1,stroop_trial_condtions/b1.xlsx,0.6604351330374253,0,congruent,GREEN,green,s,distractors/silence.wav,,,,,0,0,0,0,0,44,44,4,423.3731864000001,425.3726999999999,s,1,0.8524668999998539,P7,2023-06-09_14h47.43.260,StroopExp,2022.2.5,59.86722646520437,
b1,stroop_trial_condtions/b1.xlsx,0.004767373540519926,0,incongruent,RED,green,s,distractors/silence.wav,,,,,0,0,0,0,0,45,45,14,427.88858709999977,429.88812959999996,s,1,0.9514233999998396,P7,2023-06-09_14h47.43.260,StroopExp,2022.2.5,59.86722646520437,
b1,stroop_trial_condtions/b1.xlsx,0.9718580164963233,0,congruent,RED,red,a,distractors/silence.wav,,,,,0,0,0,0,0,46,46,0,432.3869995,434.3863246000001,a,1,0.972666499999832,P7,2023-06-09_14h47.43.260,StroopExp,2022.2.5,59.86722646520437,
b1,stroop_trial_condtions/b1.xlsx,0.832802100155878,0,incongruent,GREEN,red,a,distractors/silence.wav,,,,,0,0,0,0,0,47,47,41,436.8856016,438.8854623000002,a,1,0.8981960999999501,P7,2023-06-09_14h47.43.260,StroopExp,2022.2.5,59.86722646520437,
b2,stroop_trial_condtions/b2.xlsx,0.6661419533997107,1,congruent,RED,red,a,distractors/2.wav,,,,,0,1,1,1,0,0,0,3,516.6420810999998,518.6414733000001,a,1,0.873656100000062,P7,2023-06-09_14h47.43.260,StroopExp,2022.2.5,59.86722646520437,
b2,stroop_trial_condtions/b2.xlsx,0.10715468186921961,1,incongruent,BLUE,green,s,distractors/3.wav,,,,,0,1,1,1,0,1,1,33,521.1572298000001,523.1565025,s,1,0.9343820999997661,P7,2023-06-09_14h47.43.260,StroopExp,2022.2.5,59.86722646520437,
b2,stroop_trial_condtions/b2.xlsx,0.2950231286066718,1,incongruent,BLUE,red,a,distractors/1.wav,,,,,0,1,1,1,0,2,2,37,525.6719968000002,527.6713605999998,a,1,0.7916830999997728,P7,2023-06-09_14h47.43.260,StroopExp,2022.2.5,59.86722646520437,
b2,stroop_trial_condtions/b2.xlsx,0.3614790911510004,1,congruent,GREEN,green,s,distractors/1.wav,,,,,0,1,1,1,0,3,3,17,530.1705072999998,532.1700305999998,s,1,0.7866966000001412,P7,2023-06-09_14h47.43.260,StroopExp,2022.2.5,59.86722646520437,
b2,stroop_trial_condtions/b2.xlsx,0.12819537203794318,1,incongruent,YELLOW,red,a,distractors/3.wav,,,,,0,1,1,1,0,4,4,35,534.6536557999998,536.6535684,a,1,0.7736884999999347,P7,2023-06-09_14h47.43.260,StroopExp,2022.2.5,59.86722646520437,
b2,stroop_trial_condtions/b2.xlsx,0.16494802758791438,1,congruent,GREEN,green,s,distractors/4.wav,,,,,0,1,1,1,0,5,5,23,539.1538980999999,541.1537463999998,s,1,0.8326869000002262,P7,2023-06-09_14h47.43.260,StroopExp,2022.2.5,59.86722646520437,
b2,stroop_trial_condtions/b2.xlsx,0.5317591854488619,1,congruent,YELLOW,yellow,f,distractors/2.wav,,,,,0,1,1,1,0,6,6,34,543.6491848999999,545.6487361,f,1,0.8758404999998675,P7,2023-06-09_14h47.43.260,StroopExp,2022.2.5,59.86722646520437,
b2,stroop_trial_condtions/b2.xlsx,0.7331852058029119,1,incongruent,GREEN,blue,d,distractors/4.wav,,,,,0,1,1,1,0,7,7,28,548.1476489000001,550.1471594999998,d,1,0.6135119999999006,P7,2023-06-09_14h47.43.260,StroopExp,2022.2.5,59.86722646520437,
b2,stroop_trial_condtions/b2.xlsx,0.5030786504893666,1,incongruent,YELLOW,green,s,distractors/4.wav,,,,,0,1,1,1,0,8,8,19,552.6457464,554.6457648999999,s,1,0.7218589000003703,P7,2023-06-09_14h47.43.260,StroopExp,2022.2.5,59.86722646520437,
b2,stroop_trial_condtions/b2.xlsx,0.14441839566692105,1,congruent,GREEN,green,s,distractors/1.wav,,,,,0,1,1,1,0,9,9,43,557.1616806000002,559.1615101000002,s,1,0.7992656999999781,P7,2023-06-09_14h47.43.260,StroopExp,2022.2.5,59.86722646520437,
b2,stroop_trial_condtions/b2.xlsx,0.041649080139953165,1,incongruent,RED,yellow,f,distractors/4.wav,,,,,0,1,1,1,0,10,10,2,561.6599323,563.6591649000002,f,1,0.8015000000000327,P7,2023-06-09_14h47.43.260,StroopExp,2022.2.5,59.86722646520437,
b2,stroop_trial_condtions/b2.xlsx,0.5224761727455313,1,incongruent,RED,blue,d,distractors/1.wav,,,,,0,1,1,1,0,11,11,20,566.1585181,568.1576786,d,1,1.16915599999993,P7,2023-06-09_14h47.43.260,StroopExp,2022.2.5,59.86722646520437,
b2,stroop_trial_condtions/b2.xlsx,0.4926856322739591,1,congruent,RED,red,a,distractors/4.wav,,,,,0,1,1,1,0,12,12,27,570.6565418999999,572.6560862000001,a,1,0.7509648000000197,P7,2023-06-09_14h47.43.260,StroopExp,2022.2.5,59.86722646520437,
b2,stroop_trial_condtions/b2.xlsx,0.7962676920675457,1,incongruent,RED,blue,d,distractors/4.wav,,,,,0,1,1,1,0,13,13,46,575.1556245000002,577.155166,d,1,0.9178830000000744,P7,2023-06-09_14h47.43.260,StroopExp,2022.2.5,59.86722646520437,
b2,stroop_trial_condtions/b2.xlsx,0.7131950070563138,1,congruent,GREEN,green,s,distractors/2.wav,,,,,0,1,1,1,0,14,14,10,579.6708110999998,581.6711187000001,s,1,0.7703827999998794,P7,2023-06-09_14h47.43.260,StroopExp,2022.2.5,59.86722646520437,
b2,stroop_trial_condtions/b2.xlsx,0.4889714654954811,1,incongruent,BLUE,red,a,distractors/4.wav,,,,,0,1,1,1,0,15,15,29,584.1544131999999,586.1543999999999,a,1,0.9424809000001915,P7,2023-06-09_14h47.43.260,StroopExp,2022.2.5,59.86722646520437,
b2,stroop_trial_condtions/b2.xlsx,0.03433248455064386,1,incongruent,YELLOW,red,a,distractors/2.wav,,,,,0,1,1,1,0,16,16,13,588.6376596999999,590.6499635,a,1,0.8629386000002341,P7,2023-06-09_14h47.43.260,StroopExp,2022.2.5,59.86722646520437,
b2,stroop_trial_condtions/b2.xlsx,0.6295899639289376,1,congruent,RED,red,a,distractors/2.wav,,,,,0,1,1,1,0,17,17,11,593.1327713999999,595.1321223,a,1,0.7406559000000925,P7,2023-06-09_14h47.43.260,StroopExp,2022.2.5,59.86722646520437,
b2,stroop_trial_condtions/b2.xlsx,0.4832744640468789,1,congruent,YELLOW,yellow,f,distractors/1.wav,,,,,0,1,1,1,0,18,18,24,597.6477608999999,599.6470297000001,f,1,0.825386399999843,P7,2023-06-09_14h47.43.260,StroopExp,2022.2.5,59.86722646520437,
b2,stroop_trial_condtions/b2.xlsx,0.3240706252403076,1,congruent,YELLOW,yellow,f,distractors/3.wav,,,,,0,1,1,1,0,19,19,15,602.1474472,,f,1,0.6776252000004206,P7,2023-06-09_14h47.43.260,StroopExp,2022.2.5,59.86722646520437,
b2,stroop_trial_condtions/b2.xlsx,0.15564368800765982,1,incongruent,YELLOW,blue,d,distractors/3.wav,,,,,0,1,1,1,0,20,20,39,606.6611211,608.6601460000002,d,1,0.9660650000000714,P7,2023-06-09_14h47.43.260,StroopExp,2022.2.5,59.86722646520437,
b2,stroop_trial_condtions/b2.xlsx,0.3293331866279865,1,incongruent,YELLOW,green,s,distractors/2.wav,,,,,0,1,1,1,0,21,21,6,611.1597929,613.1593130000001,s,1,0.6071348999998918,P7,2023-06-09_14h47.43.260,StroopExp,2022.2.5,59.86722646520437,
b2,stroop_trial_condtions/b2.xlsx,0.4249079497252247,1,congruent,GREEN,green,s,distractors/2.wav,,,,,0,1,1,1,0,22,22,4,615.6749650000002,617.6744960999999,s,1,0.7940748999999414,P7,2023-06-09_14h47.43.260,StroopExp,2022.2.5,59.86722646520437,
b2,stroop_trial_condtions/b2.xlsx,0.3400635619663932,1,congruent,YELLOW,yellow,f,distractors/3.wav,,,,,0,1,1,1,0,23,23,12,620.1905901,622.1896840999998,f,1,0.9128501000000142,P7,2023-06-09_14h47.43.260,StroopExp,2022.2.5,59.86722646520437,
b2,stroop_trial_condtions/b2.xlsx,0.8384300714767312,1,congruent,RED,red,a,distractors/1.wav,,,,,0,1,1,1,0,24,24,25,624.7053836,626.7048537999999,a,1,0.7456882999999834,P7,2023-06-09_14h47.43.260,StroopExp,2022.2.5,59.86722646520437,
b2,stroop_trial_condtions/b2.xlsx,0.33083395410092575,1,incongruent,BLUE,yellow,f,distractors/4.wav,,,,,0,1,1,1,0,25,25,5,629.2049022000001,631.2051505,f,1,0.7768028999998933,P7,2023-06-09_14h47.43.260,StroopExp,2022.2.5,59.86722646520437,
b2,stroop_trial_condtions/b2.xlsx,0.7676806241710538,1,congruent,BLUE,blue,d,distractors/3.wav,,,,,0,1,1,1,0,26,26,32,633.6886897999998,635.6886,d,1,0.7447714999998425,P7,2023-06-09_14h47.43.260,StroopExp,2022.2.5,59.86722646520437,
b2,stroop_trial_condtions/b2.xlsx,0.8857086195357853,1,congruent,BLUE,blue,d,distractors/1.wav,,,,,0,1,1,1,0,27,27,16,638.2007788999999,640.2001181999999,d,1,0.7721478999997089,P7,2023-06-09_14h47.43.260,StroopExp,2022.2.5,59.86722646520437,
b2,stroop_trial_condtions/b2.xlsx,0.21174317193635972,1,congruent,YELLOW,yellow,f,distractors/2.wav,,,,,0,1,1,1,0,28,28,38,642.7159302999999,644.7152182999998,f,1,0.8497161000000233,P7,2023-06-09_14h47.43.260,StroopExp,2022.2.5,59.86722646520437,
b2,stroop_trial_condtions/b2.xlsx,0.8140627153069117,1,congruent,BLUE,blue,d,distractors/2.wav,,,,,0,1,1,1,0,29,29,36,647.2311355000002,649.2304804,d,1,0.8022292000000562,P7,2023-06-09_14h47.43.260,StroopExp,2022.2.5,59.86722646520437,
b2,stroop_trial_condtions/b2.xlsx,0.08769688168855672,1,incongruent,RED,green,s,distractors/3.wav,,,,,0,1,1,1,0,30,30,47,651.7460704999999,653.7461290000001,s,1,0.7908118000000286,P7,2023-06-09_14h47.43.260,StroopExp,2022.2.5,59.86722646520437,
b2,stroop_trial_condtions/b2.xlsx,0.8586137871935915,1,incongruent,YELLOW,blue,d,distractors/3.wav,,,,,0,1,1,1,0,31,31,44,656.2612982999999,658.2607885000002,d,1,0.869892499999878,P7,2023-06-09_14h47.43.260,StroopExp,2022.2.5,59.86722646520437,
b2,stroop_trial_condtions/b2.xlsx,0.828978615866739,1,incongruent,RED,yellow,f,distractors/4.wav,,,,,0,1,1,1,0,32,32,31,660.7601055,662.7591084000001,f,1,0.5995591999999306,P7,2023-06-09_14h47.43.260,StroopExp,2022.2.5,59.86722646520437,
b2,stroop_trial_condtions/b2.xlsx,0.19636652195914828,1,incongruent,GREEN,red,a,distractors/1.wav,,,,,0,1,1,1,0,33,33,9,665.2748434999999,667.2742196999998,a,1,0.628048100000342,P7,2023-06-09_14h47.43.260,StroopExp,2022.2.5,59.86722646520437,
b2,stroop_trial_condtions/b2.xlsx,0.9734714245974094,1,congruent,BLUE,blue,d,distractors/2.wav,,,,,0,1,1,1,0,34,34,1,669.7901419,671.7901603,d,1,0.8592992999997477,P7,2023-06-09_14h47.43.260,StroopExp,2022.2.5,59.86722646520437,
b2,stroop_trial_condtions/b2.xlsx,0.9005674222221599,1,congruent,BLUE,blue,d,distractors/2.wav,,,,,0,1,1,1,0,35,35,30,674.2887405000001,676.2885322000002,d,1,0.713194200000089,P7,2023-06-09_14h47.43.260,StroopExp,2022.2.5,59.86722646520437,
b2,stroop_trial_condtions/b2.xlsx,0.5666506333865139,1,incongruent,GREEN,yellow,f,distractors/3.wav,,,,,0,1,1,1,0,36,36,0,678.7724546999998,680.772356,f,1,0.6264382999997906,P7,2023-06-09_14h47.43.260,StroopExp,2022.2.5,59.86722646520437,
b2,stroop_trial_condtions/b2.xlsx,0.10839814050721508,1,incongruent,RED,green,s,distractors/1.wav,,,,,0,1,1,1,0,37,37,14,683.2521596000001,685.2508257999998,s,1,0.8794535000001815,P7,2023-06-09_14h47.43.260,StroopExp,2022.2.5,59.86722646520437,
b2,stroop_trial_condtions/b2.xlsx,0.06730533561031782,1,incongruent,BLUE,yellow,f,distractors/3.wav,,,,,0,1,1,1,0,38,38,26,687.7507931999999,689.7497573,f,1,0.9549713000001248,P7,2023-06-09_14h47.43.260,StroopExp,2022.2.5,59.86722646520437,
b2,stroop_trial_condtions/b2.xlsx,0.5007983240031381,1,incongruent,BLUE,green,s,distractors/1.wav,,,,,0,1,1,1,0,39,39,18,692.2664528,,s,1,0.797023299999637,P7,2023-06-09_14h47.43.260,StroopExp,2022.2.5,59.86722646520437,
b2,stroop_trial_condtions/b2.xlsx,0.255397179890806,1,congruent,YELLOW,yellow,f,distractors/1.wav,,,,,0,1,1,1,0,40,40,45,696.7808765999998,698.7803742000001,f,1,0.9334852000001774,P7,2023-06-09_14h47.43.260,StroopExp,2022.2.5,59.86722646520437,
b2,stroop_trial_condtions/b2.xlsx,0.06502382441476195,1,incongruent,GREEN,yellow,f,distractors/1.wav,,,,,0,1,1,1,0,41,41,7,701.2794632,703.2787770999998,f,1,0.7660163999998986,P7,2023-06-09_14h47.43.260,StroopExp,2022.2.5,59.86722646520437,
b2,stroop_trial_condtions/b2.xlsx,0.9668213022564922,1,congruent,BLUE,blue,d,distractors/2.wav,,,,,0,1,1,1,0,42,42,21,705.7781617999999,707.7766424000001,d,1,0.862927099999979,P7,2023-06-09_14h47.43.260,StroopExp,2022.2.5,59.86722646520437,
b2,stroop_trial_condtions/b2.xlsx,0.8135146664790234,1,incongruent,GREEN,red,a,distractors/3.wav,,,,,0,1,1,1,0,43,43,40,710.276543,712.2760411999998,a,1,0.9044637000001785,P7,2023-06-09_14h47.43.260,StroopExp,2022.2.5,59.86722646520437,
b2,stroop_trial_condtions/b2.xlsx,0.23156741124673452,1,congruent,GREEN,green,s,distractors/4.wav,,,,,0,1,1,1,0,44,44,8,714.7746166000002,716.7745884000001,s,1,0.6524116000000504,P7,2023-06-09_14h47.43.260,StroopExp,2022.2.5,59.86722646520437,
b2,stroop_trial_condtions/b2.xlsx,0.776926077509408,1,incongruent,GREEN,blue,d,distractors/4.wav,,,,,0,1,1,1,0,45,45,22,719.2903891999999,721.2896107000001,d,1,0.6159935000000587,P7,2023-06-09_14h47.43.260,StroopExp,2022.2.5,59.86722646520437,
b2,stroop_trial_condtions/b2.xlsx,0.09088957165746492,1,congruent,RED,red,a,distractors/3.wav,,,,,0,1,1,1,0,46,46,41,723.7897103999999,725.7898123,a,1,0.8826948000000812,P7,2023-06-09_14h47.43.260,StroopExp,2022.2.5,59.86722646520437,
b2,stroop_trial_condtions/b2.xlsx,0.011991741755762342,1,congruent,RED,red,a,distractors/4.wav,,,,,0,1,1,1,0,47,47,42,728.2729199999999,730.2703152999998,a,1,0.6606267000001935,P7,2023-06-09_14h47.43.260,StroopExp,2022.2.5,59.86722646520437,
b3,stroop_trial_condtions/b1.xlsx,0.7296842337577286,0,incongruent,BLUE,red,a,distractors/silence.wav,,,,,0,2,2,2,0,0,0,29,811.5419532000001,813.5413807999998,a,1,0.8853674000001774,P7,2023-06-09_14h47.43.260,StroopExp,2022.2.5,59.86722646520437,
b3,stroop_trial_condtions/b1.xlsx,0.019360950480176498,0,incongruent,YELLOW,green,s,distractors/silence.wav,,,,,0,2,2,2,0,1,1,2,816.0571963000002,818.0577269999999,s,1,0.8183328000000074,P7,2023-06-09_14h47.43.260,StroopExp,2022.2.5,59.86722646520437,
b3,stroop_trial_condtions/b1.xlsx,0.6252124205445847,0,congruent,GREEN,green,s,distractors/silence.wav,,,,,0,2,2,2,0,2,2,24,820.5408137999998,822.5410738999999,s,1,0.850724700000228,P7,2023-06-09_14h47.43.260,StroopExp,2022.2.5,59.86722646520437,
b3,stroop_trial_condtions/b1.xlsx,0.5794916014066622,0,congruent,RED,red,a,distractors/silence.wav,,,,,0,2,2,2,0,3,3,47,825.0244306999998,827.0369240999999,a,1,0.7328129999996236,P7,2023-06-09_14h47.43.260,StroopExp,2022.2.5,59.86722646520437,
b3,stroop_trial_condtions/b1.xlsx,0.9366695365255577,0,incongruent,GREEN,yellow,f,distractors/silence.wav,,,,,0,2,2,2,0,4,4,34,829.5360294000002,831.5356164,f,1,0.8009858000000349,P7,2023-06-09_14h47.43.260,StroopExp,2022.2.5,59.86722646520437,
b3,stroop_trial_condtions/b1.xlsx,0.15319618406080382,0,incongruent,YELLOW,green,s,distractors/silence.wav,,,,,0,2,2,2,0,5,5,31,834.0512067,836.0505578000002,s,1,0.7900182000003042,P7,2023-06-09_14h47.43.260,StroopExp,2022.2.5,59.86722646520437,
b3,stroop_trial_condtions/b1.xlsx,0.8708935669205526,0,congruent,RED,red,a,distractors/silence.wav,,,,,0,2,2,2,0,6,6,9,838.5662619,840.5659611000001,a,1,0.5973703999998179,P7,2023-06-09_14h47.43.260,StroopExp,2022.2.5,59.86722646520437,
b3,stroop_trial_condtions/b1.xlsx,0.0729145768917061,0,congruent,BLUE,blue,d,distractors/silence.wav,,,,,0,2,2,2,0,7,7,3,843.0816453000002,,d,1,0.661678700000266,P7,2023-06-09_14h47.43.260,StroopExp,2022.2.5,59.86722646520437,
b3,stroop_trial_condtions/b1.xlsx,0.9836363330757953,0,incongruent,RED,yellow,f,distractors/silence.wav,,,,,0,2,2,2,0,8,8,10,847.5967068999998,849.5961750000001,f,1,0.6207984000002398,P7,2023-06-09_14h47.43.260,StroopExp,2022.2.5,59.86722646520437,
b3,stroop_trial_condtions/b1.xlsx,0.9718580164963233,0,congruent,RED,red,a,distractors/silence.wav,,,,,0,2,2,2,0,9,9,0,852.0949328000002,854.0942706000001,a,1,0.8119227000001956,P7,2023-06-09_14h47.43.260,StroopExp,2022.2.5,59.86722646520437,
b3,stroop_trial_condtions/b1.xlsx,0.6478411009005055,0,incongruent,GREEN,red,a,distractors/silence.wav,,,,,0,2,2,2,0,10,10,6,856.5935439999998,858.5929750999999,a,1,0.8840626999999586,P7,2023-06-09_14h47.43.260,StroopExp,2022.2.5,59.86722646520437,
b3,stroop_trial_condtions/b1.xlsx,0.8969522657404946,0,incongruent,YELLOW,blue,d,distractors/silence.wav,,,,,0,2,2,2,0,11,11,25,861.1083167000002,863.1083779,d,1,1.0350883999999496,P7,2023-06-09_14h47.43.260,StroopExp,2022.2.5,59.86722646520437,
b3,stroop_trial_condtions/b1.xlsx,0.2518748957010212,0,incongruent,GREEN,blue,d,distractors/silence.wav,,,,,0,2,2,2,0,12,12,37,865.5918806999998,867.5918037000001,d,1,0.8691389000000527,P7,2023-06-09_14h47.43.260,StroopExp,2022.2.5,59.86722646520437,
b3,stroop_trial_condtions/b1.xlsx,0.41931537120590046,0,congruent,RED,red,a,distractors/silence.wav,,,,,0,2,2,2,0,13,13,38,870.0751722999998,872.0751706000001,a,1,1.1219113000001926,P7,2023-06-09_14h47.43.260,StroopExp,2022.2.5,59.86722646520437,
b3,stroop_trial_condtions/b1.xlsx,0.9769421455207146,0,congruent,BLUE,blue,d,distractors/silence.wav,,,,,0,2,2,2,0,14,14,13,874.5713390000001,,d,1,0.899165400000129,P7,2023-06-09_14h47.43.260,StroopExp,2022.2.5,59.86722646520437,
b3,stroop_trial_condtions/b1.xlsx,0.7089760381977726,0,congruent,GREEN,green,s,distractors/silence.wav,,,,,0,2,2,2,0,15,15,8,879.0860105000002,881.0861031,s,1,0.8874252999999044,P7,2023-06-09_14h47.43.260,StroopExp,2022.2.5,59.86722646520437,
b3,stroop_trial_condtions/b1.xlsx,0.6671969061834688,0,incongruent,RED,green,s,distractors/silence.wav,,,,,0,2,2,2,0,16,16,36,883.5845608999998,885.5840039999998,s,1,0.7565006999998332,P7,2023-06-09_14h47.43.260,StroopExp,2022.2.5,59.86722646520437,
b3,stroop_trial_condtions/b1.xlsx,0.5480879446861618,0,congruent,YELLOW,yellow,f,distractors/silence.wav,,,,,0,2,2,2,0,17,17,32,888.1004904000001,,f,1,0.7349067000000105,P7,2023-06-09_14h47.43.260,StroopExp,2022.2.5,59.86722646520437,
b3,stroop_trial_condtions/b1.xlsx,0.004767373540519926,0,incongruent,RED,green,s,distractors/silence.wav,,,,,0,2,2,2,0,18,18,14,892.6150495000002,894.6140743000001,s,1,0.8403210999999828,P7,2023-06-09_14h47.43.260,StroopExp,2022.2.5,59.86722646520437,
b3,stroop_trial_condtions/b1.xlsx,0.19939336354685822,0,congruent,YELLOW,yellow,f,distractors/silence.wav,,,,,0,2,2,2,0,19,19,23,897.1301137999999,,f,1,0.8892000000000735,P7,2023-06-09_14h47.43.260,StroopExp,2022.2.5,59.86722646520437,
b3,stroop_trial_condtions/b1.xlsx,0.922953448054004,0,congruent,RED,red,a,distractors/silence.wav,,,,,0,2,2,2,0,20,20,40,901.6453133999998,,a,1,0.784298100000342,P7,2023-06-09_14h47.43.260,StroopExp,2022.2.5,59.86722646520437,
b3,stroop_trial_condtions/b1.xlsx,0.25693203245358776,0,congruent,BLUE,blue,d,distractors/silence.wav,,,,,0,2,2,2,0,21,21,30,906.1606062000001,,d,1,0.84244389999958,P7,2023-06-09_14h47.43.260,StroopExp,2022.2.5,59.86722646520437,
b3,stroop_trial_condtions/b1.xlsx,0.5716507137496009,0,incongruent,YELLOW,red,a,distractors/silence.wav,,,,,0,2,2,2,0,22,22,5,910.6754789000001,912.6754526,a,1,1.0139889000001858,P7,2023-06-09_14h47.43.260,StroopExp,2022.2.5,59.86722646520437,
b3,stroop_trial_condtions/b1.xlsx,0.19133216126723684,0,congruent,GREEN,green,s,distractors/silence.wav,,,,,0,2,2,2,0,23,23,43,915.1591091,917.1593232,s,1,0.8759169999998448,P7,2023-06-09_14h47.43.260,StroopExp,2022.2.5,59.86722646520437,
b3,stroop_trial_condtions/b1.xlsx,0.5831965246907577,0,congruent,BLUE,blue,d,distractors/silence.wav,,,,,0,2,2,2,0,24,24,44,919.6556169999999,921.6545973000002,d,1,0.6421838999999636,P7,2023-06-09_14h47.43.260,StroopExp,2022.2.5,59.86722646520437,
b3,stroop_trial_condtions/b1.xlsx,0.9765691810900071,0,incongruent,YELLOW,blue,d,distractors/silence.wav,,,,,0,2,2,2,0,25,25,39,924.1542116,926.1534323999999,d,1,1.3688505999998597,P7,2023-06-09_14h47.43.260,StroopExp,2022.2.5,59.86722646520437,
b3,stroop_trial_condtions/b1.xlsx,0.24919007739364696,0,congruent,YELLOW,yellow,f,distractors/silence.wav,,,,,0,2,2,2,0,26,26,16,928.6689922,930.6685799000002,f,1,0.7178526999996393,P7,2023-06-09_14h47.43.260,StroopExp,2022.2.5,59.86722646520437,
b3,stroop_trial_condtions/b1.xlsx,0.632437180452533,0,incongruent,RED,blue,d,distractors/silence.wav,,,,,0,2,2,2,0,27,27,19,933.1675421,935.1667293999999,d,1,0.6933667999996942,P7,2023-06-09_14h47.43.260,StroopExp,2022.2.5,59.86722646520437,
b3,stroop_trial_condtions/b1.xlsx,0.674408475762876,0,incongruent,BLUE,yellow,f,distractors/silence.wav,,,,,0,2,2,2,0,28,28,26,937.6652220000001,939.6655603999998,f,1,0.9618738000003759,P7,2023-06-09_14h47.43.260,StroopExp,2022.2.5,59.86722646520437,
b3,stroop_trial_condtions/b1.xlsx,0.5429940223524143,0,congruent,YELLOW,yellow,f,distractors/silence.wav,,,,,0,2,2,2,0,29,29,28,942.1650248000001,,f,1,0.739969199999905,P7,2023-06-09_14h47.43.260,StroopExp,2022.2.5,59.86722646520437,
b3,stroop_trial_condtions/b1.xlsx,0.45159790316989123,0,congruent,BLUE,blue,d,distractors/silence.wav,,,,,0,2,2,2,0,30,30,22,946.6798972000001,948.6793413999999,d,1,0.8295471000001271,P7,2023-06-09_14h47.43.260,StroopExp,2022.2.5,59.86722646520437,
b3,stroop_trial_condtions/b1.xlsx,0.9350978434171133,0,incongruent,RED,blue,d,distractors/silence.wav,,,,,0,2,2,2,0,31,31,17,951.1947521000002,953.1940537999999,d,1,0.7687643999997817,P7,2023-06-09_14h47.43.260,StroopExp,2022.2.5,59.86722646520437,
b3,stroop_trial_condtions/b1.xlsx,0.8309483305278348,0,incongruent,BLUE,green,s,distractors/silence.wav,,,,,0,2,2,2,0,32,32,46,955.7102202000001,957.7095365,s,1,0.8234439999996539,P7,2023-06-09_14h47.43.260,StroopExp,2022.2.5,59.86722646520437,
b3,stroop_trial_condtions/b1.xlsx,0.4017822535991459,0,incongruent,YELLOW,red,a,distractors/silence.wav,,,,,0,2,2,2,0,33,33,12,960.1929372,962.1928312,a,1,1.0100416999998743,P7,2023-06-09_14h47.43.260,StroopExp,2022.2.5,59.86722646520437,
b3,stroop_trial_condtions/b1.xlsx,0.027168618358859753,0,incongruent,RED,yellow,f,distractors/silence.wav,,,,,0,2,2,2,0,34,34,27,964.6763516999999,966.6760829,f,1,0.788847799999985,P7,2023-06-09_14h47.43.260,StroopExp,2022.2.5,59.86722646520437,
b3,stroop_trial_condtions/b1.xlsx,0.35032813659302076,0,congruent,GREEN,green,s,distractors/silence.wav,,,,,0,2,2,2,0,35,35,20,969.1715202999999,971.1715410000002,s,1,1.1854759999996531,P7,2023-06-09_14h47.43.260,StroopExp,2022.2.5,59.86722646520437,
b3,stroop_trial_condtions/b1.xlsx,0.6869684900918854,0,congruent,YELLOW,yellow,f,distractors/silence.wav,,,,,0,2,2,2,0,36,36,45,973.6876183999998,975.6870014000001,f,1,0.7920666999998502,P7,2023-06-09_14h47.43.260,StroopExp,2022.2.5,59.86722646520437,
b3,stroop_trial_condtions/b1.xlsx,0.5430706368691302,0,incongruent,BLUE,yellow,f,distractors/silence.wav,,,,,0,2,2,2,0,37,37,1,978.2026910999998,980.2016991999999,f,1,0.834885100000065,P7,2023-06-09_14h47.43.260,StroopExp,2022.2.5,59.86722646520437,
b3,stroop_trial_condtions/b1.xlsx,0.832802100155878,0,incongruent,GREEN,red,a,distractors/silence.wav,,,,,0,2,2,2,0,38,38,41,982.7011725000002,984.7000859,a,1,0.8058544000000438,P7,2023-06-09_14h47.43.260,StroopExp,2022.2.5,59.86722646520437,
b3,stroop_trial_condtions/b1.xlsx,0.7445649241064577,0,congruent,GREEN,green,s,distractors/silence.wav,,,,,0,2,2,2,0,39,39,42,987.1987881999999,989.1988621999999,s,1,0.8780357000000549,P7,2023-06-09_14h47.43.260,StroopExp,2022.2.5,59.86722646520437,
b3,stroop_trial_condtions/b1.xlsx,0.680507855371767,0,incongruent,GREEN,yellow,f,distractors/silence.wav,,,,,0,2,2,2,0,40,40,33,991.6978961999998,993.6974627999998,f,1,0.7210296999996899,P7,2023-06-09_14h47.43.260,StroopExp,2022.2.5,59.86722646520437,
b3,stroop_trial_condtions/b1.xlsx,0.4930182611236916,0,congruent,BLUE,blue,d,distractors/silence.wav,,,,,0,2,2,2,0,41,41,7,996.2130627000001,998.2130689,d,1,0.9787530999997216,P7,2023-06-09_14h47.43.260,StroopExp,2022.2.5,59.86722646520437,
b3,stroop_trial_condtions/b1.xlsx,0.6604351330374253,0,congruent,GREEN,green,s,distractors/silence.wav,,,,,0,2,2,2,0,42,42,4,1000.7115316999998,1002.7110687999998,s,1,0.8177988000002188,P7,2023-06-09_14h47.43.260,StroopExp,2022.2.5,59.86722646520437,
b3,stroop_trial_condtions/b1.xlsx,0.870406961301538,0,congruent,YELLOW,yellow,f,distractors/silence.wav,,,,,0,2,2,2,0,43,43,11,1005.2265926999999,1007.2274001000001,f,1,0.8623507000002064,P7,2023-06-09_14h47.43.260,StroopExp,2022.2.5,59.86722646520437,
b3,stroop_trial_condtions/b1.xlsx,0.23739699734220088,0,incongruent,GREEN,blue,d,distractors/silence.wav,,,,,0,2,2,2,0,44,44,18,1009.7105969999998,1011.7104389000001,d,1,1.2551296999999977,P7,2023-06-09_14h47.43.260,StroopExp,2022.2.5,59.86722646520437,
b3,stroop_trial_condtions/b1.xlsx,0.7336815417486652,0,incongruent,BLUE,green,s,distractors/silence.wav,,,,,0,2,2,2,0,45,45,15,1014.1937342000001,1016.1938111999998,s,1,0.6054822000000968,P7,2023-06-09_14h47.43.260,StroopExp,2022.2.5,59.86722646520437,
b3,stroop_trial_condtions/b1.xlsx,0.9396621068767484,0,congruent,RED,red,a,distractors/silence.wav,,,,,0,2,2,2,0,46,46,21,1018.6888177000001,1020.6880295000001,a,1,0.7641932999999881,P7,2023-06-09_14h47.43.260,StroopExp,2022.2.5,59.86722646520437,
b3,stroop_trial_condtions/b1.xlsx,0.07711709789910381,0,incongruent,BLUE,red,a,distractors/silence.wav,,,,,0,2,2,2,0,47,47,35,1023.2040277000001,1025.2035474,a,1,0.9007740000001832,P7,2023-06-09_14h47.43.260,StroopExp,2022.2.5,59.86722646520437,
b4,stroop_trial_condtions/b3.xlsx,0.3378719033646135,1,incongruent,RED,yellow,f,distractors/4.wav,,,,,0,3,3,3,0,0,0,19,1095.9456387,1097.9447276,f,1,0.7133579999999711,P7,2023-06-09_14h47.43.260,StroopExp,2022.2.5,59.86722646520437,
b4,stroop_trial_condtions/b3.xlsx,0.6000084328909321,1,congruent,BLUE,blue,d,distractors/3.wav,,,,,0,3,3,3,0,1,1,42,1100.4447919,1102.4449718,d,1,0.8102760000001581,P7,2023-06-09_14h47.43.260,StroopExp,2022.2.5,59.86722646520437,
b4,stroop_trial_condtions/b3.xlsx,0.21440578937717747,1,incongruent,GREEN,red,a,distractors/4.wav,,,,,0,3,3,3,0,2,2,29,1104.9285928999998,1106.9286701,a,1,0.5683511000002,P7,2023-06-09_14h47.43.260,StroopExp,2022.2.5,59.86722646520437,
b4,stroop_trial_condtions/b3.xlsx,0.5042669091023176,1,congruent,BLUE,blue,d,distractors/2.wav,,,,,0,3,3,3,0,3,3,25,1109.4247129999999,1111.4240921,d,1,0.7328898000000663,P7,2023-06-09_14h47.43.260,StroopExp,2022.2.5,59.86722646520437,
b4,stroop_trial_condtions/b3.xlsx,0.5858254357624116,1,incongruent,YELLOW,blue,d,distractors/2.wav,,,,,0,3,3,3,0,4,4,12,1113.9231694,1115.9226173000002,d,1,0.9746731000000182,P7,2023-06-09_14h47.43.260,StroopExp,2022.2.5,59.86722646520437,
b4,stroop_trial_condtions/b3.xlsx,0.9654449717548405,1,congruent,BLUE,blue,d,distractors/2.wav,,,,,0,3,3,3,0,5,5,2,1118.4382805999999,1120.4378596000001,d,1,0.7729091999999582,P7,2023-06-09_14h47.43.260,StroopExp,2022.2.5,59.86722646520437,
b4,stroop_trial_condtions/b3.xlsx,0.28983611898456463,1,incongruent,GREEN,yellow,f,distractors/2.wav,,,,,0,3,3,3,0,6,6,20,1122.953066,1124.9531081999999,f,1,0.7674951000003603,P7,2023-06-09_14h47.43.260,StroopExp,2022.2.5,59.86722646520437,
b4,stroop_trial_condtions/b3.xlsx,0.7943148249806823,1,incongruent,BLUE,red,a,distractors/1.wav,,,,,0,3,3,3,0,7,7,30,1127.4690301,,a,1,0.7299540000003617,P7,2023-06-09_14h47.43.260,StroopExp,2022.2.5,59.86722646520437,
b4,stroop_trial_condtions/b3.xlsx,0.5121364174675235,1,congruent,BLUE,blue,d,distractors/3.wav,,,,,0,3,3,3,0,8,8,40,1131.9852867,,d,1,0.8244672000000719,P7,2023-06-09_14h47.43.260,StroopExp,2022.2.5,59.86722646520437,
b4,stroop_trial_condtions/b3.xlsx,0.4220278048678988,1,incongruent,YELLOW,green,s,distractors/2.wav,,,,,0,3,3,3,0,9,9,33,1136.498755,1138.4986792,s,1,0.58431389999987,P7,2023-06-09_14h47.43.260,StroopExp,2022.2.5,59.86722646520437,
b4,stroop_trial_condtions/b3.xlsx,0.7591509381967968,1,congruent,YELLOW,yellow,f,distractors/3.wav,,,,,0,3,3,3,0,10,10,36,1140.9971641000002,1142.9968774,f,1,0.7836419000000205,P7,2023-06-09_14h47.43.260,StroopExp,2022.2.5,59.86722646520437,
b4,stroop_trial_condtions/b3.xlsx,0.09103571529527676,1,incongruent,BLUE,yellow,f,distractors/3.wav,,,,,0,3,3,3,0,11,11,7,1145.5293333,1147.5291134,f,1,0.9876363000003039,P7,2023-06-09_14h47.43.260,StroopExp,2022.2.5,59.86722646520437,
b4,stroop_trial_condtions/b3.xlsx,0.010072895586636488,1,congruent,RED,red,a,distractors/4.wav,,,,,0,3,3,3,0,12,12,37,1150.0288945000002,1152.0291994999998,a,1,0.7960522000003039,P7,2023-06-09_14h47.43.260,StroopExp,2022.2.5,59.86722646520437,
b4,stroop_trial_condtions/b3.xlsx,0.8016808924679877,1,incongruent,YELLOW,red,a,distractors/3.wav,,,,,0,3,3,3,0,13,13,35,1154.5124403999998,1156.5290882,a,1,0.7708952999996654,P7,2023-06-09_14h47.43.260,StroopExp,2022.2.5,59.86722646520437,
b4,stroop_trial_condtions/b3.xlsx,0.264144016402854,1,congruent,RED,red,a,distractors/2.wav,,,,,0,3,3,3,0,14,14,6,1159.0246603,1161.0241529,a,1,0.7065452000001642,P7,2023-06-09_14h47.43.260,StroopExp,2022.2.5,59.86722646520437,
b4,stroop_trial_condtions/b3.xlsx,0.46851590450319824,1,incongruent,YELLOW,green,s,distractors/1.wav,,,,,0,3,3,3,0,15,15,3,1163.5231333000002,1165.5223476,s,1,1.059804399999848,P7,2023-06-09_14h47.43.260,StroopExp,2022.2.5,59.86722646520437,
b4,stroop_trial_condtions/b3.xlsx,0.45744716647321115,1,congruent,RED,red,a,distractors/1.wav,,,,,0,3,3,3,0,16,16,41,1168.0384450000001,1170.0380315000002,a,1,0.7865202999996654,P7,2023-06-09_14h47.43.260,StroopExp,2022.2.5,59.86722646520437,
b4,stroop_trial_condtions/b3.xlsx,0.5078031949822321,1,congruent,YELLOW,yellow,f,distractors/3.wav,,,,,0,3,3,3,0,17,17,45,1172.5364436,1174.5360386000002,f,1,1.1772273999999925,P7,2023-06-09_14h47.43.260,StroopExp,2022.2.5,59.86722646520437,
b4,stroop_trial_condtions/b3.xlsx,0.0557810844842791,1,incongruent,RED,yellow,f,distractors/4.wav,,,,,0,3,3,3,0,18,18,43,1177.0520556000001,1179.0512614,f,1,0.6809120999996594,P7,2023-06-09_14h47.43.260,StroopExp,2022.2.5,59.86722646520437,
b4,stroop_trial_condtions/b3.xlsx,0.5215658873690101,1,incongruent,YELLOW,blue,d,distractors/3.wav,,,,,0,3,3,3,0,19,19,14,1181.5504185999998,1183.5494241000001,d,1,0.988397999999961,P7,2023-06-09_14h47.43.260,StroopExp,2022.2.5,59.86722646520437,
b4,stroop_trial_condtions/b3.xlsx,0.9277064063263939,1,incongruent,BLUE,red,a,distractors/1.wav,,,,,0,3,3,3,0,20,20,32,1186.0492034,1188.0648247999998,a,1,0.7056720999999015,P7,2023-06-09_14h47.43.260,StroopExp,2022.2.5,59.86722646520437,
b4,stroop_trial_condtions/b3.xlsx,0.6771707449380959,1,congruent,GREEN,green,s,distractors/1.wav,,,,,0,3,3,3,0,21,21,5,1190.5641093999998,1192.5632409999998,s,1,0.6294029000000592,P7,2023-06-09_14h47.43.260,StroopExp,2022.2.5,59.86722646520437,
b4,stroop_trial_condtions/b3.xlsx,0.568990759527847,1,congruent,BLUE,blue,d,distractors/3.wav,,,,,0,3,3,3,0,22,22,28,1195.0628895999998,1197.0630403999999,d,1,0.7522478999999294,P7,2023-06-09_14h47.43.260,StroopExp,2022.2.5,59.86722646520437,
b4,stroop_trial_condtions/b3.xlsx,0.7415483131081879,1,congruent,YELLOW,yellow,f,distractors/1.wav,,,,,0,3,3,3,0,23,23,22,1199.5467337,1201.5465552,f,1,0.792975899999874,P7,2023-06-09_14h47.43.260,StroopExp,2022.2.5,59.86722646520437,
b4,stroop_trial_condtions/b3.xlsx,0.9995126588586891,1,incongruent,GREEN,yellow,f,distractors/1.wav,,,,,0,3,3,3,0,24,24,39,1204.0428714,1206.0421224000002,f,1,0.7906067999997504,P7,2023-06-09_14h47.43.260,StroopExp,2022.2.5,59.86722646520437,
b4,stroop_trial_condtions/b3.xlsx,0.22948030212444814,1,congruent,YELLOW,yellow,f,distractors/3.wav,,,,,0,3,3,3,0,25,25,0,1208.5411236,1210.5404898000002,f,1,0.7037421999998514,P7,2023-06-09_14h47.43.260,StroopExp,2022.2.5,59.86722646520437,
b4,stroop_trial_condtions/b3.xlsx,0.4699973194550694,1,incongruent,YELLOW,red,a,distractors/2.wav,,,,,0,3,3,3,0,26,26,34,1213.0397167,1215.0393043999998,a,1,0.8019761999998991,P7,2023-06-09_14h47.43.260,StroopExp,2022.2.5,59.86722646520437,
b4,stroop_trial_condtions/b3.xlsx,0.10397582984293274,1,incongruent,BLUE,green,s,distractors/1.wav,,,,,0,3,3,3,0,27,27,47,1217.5551099,1219.5540593,s,1,0.9196704999999383,P7,2023-06-09_14h47.43.260,StroopExp,2022.2.5,59.86722646520437,
b4,stroop_trial_condtions/b3.xlsx,0.01763447907037896,1,incongruent,RED,blue,d,distractors/3.wav,,,,,0,3,3,3,0,28,28,31,1222.0698644,1224.0691413,d,1,0.5675122999996347,P7,2023-06-09_14h47.43.260,StroopExp,2022.2.5,59.86722646520437,
b4,stroop_trial_condtions/b3.xlsx,0.3048901609321858,1,incongruent,BLUE,green,s,distractors/1.wav,,,,,0,3,3,3,0,29,29,21,1226.5849533,1228.5845398000001,s,1,1.0040272999999615,P7,2023-06-09_14h47.43.260,StroopExp,2022.2.5,59.86722646520437,
b4,stroop_trial_condtions/b3.xlsx,0.5091952837801443,1,congruent,RED,red,a,distractors/3.wav,,,,,0,3,3,3,0,30,30,23,1231.0832728999999,1233.0828935,a,1,0.7775704999999107,P7,2023-06-09_14h47.43.260,StroopExp,2022.2.5,59.86722646520437,
b4,stroop_trial_condtions/b3.xlsx,0.7490878176166669,1,congruent,GREEN,green,s,distractors/2.wav,,,,,0,3,3,3,0,31,31,46,1235.5985904999998,1237.598308,s,1,0.7966747000000396,P7,2023-06-09_14h47.43.260,StroopExp,2022.2.5,59.86722646520437,
b4,stroop_trial_condtions/b3.xlsx,0.48808766913605917,1,congruent,RED,red,a,distractors/4.wav,,,,,0,3,3,3,0,32,32,38,1240.1138483,1242.1134904,a,1,0.8513542000000598,P7,2023-06-09_14h47.43.260,StroopExp,2022.2.5,59.86722646520437,
b4,stroop_trial_condtions/b3.xlsx,0.610353600261409,1,incongruent,RED,green,s,distractors/2.wav,,,,,0,3,3,3,0,33,33,16,1244.5972821999999,1246.5970477,s,1,0.7555196000002979,P7,2023-06-09_14h47.43.260,StroopExp,2022.2.5,59.86722646520437,
b4,stroop_trial_condtions/b3.xlsx,0.8013414949294776,1,incongruent,BLUE,yellow,f,distractors/4.wav,,,,,0,3,3,3,0,34,34,4,1249.0808272999998,1251.0935479999998,f,1,0.932181799999853,P7,2023-06-09_14h47.43.260,StroopExp,2022.2.5,59.86722646520437,
b4,stroop_trial_condtions/b3.xlsx,0.8711656555587126,1,congruent,YELLOW,yellow,f,distractors/1.wav,,,,,0,3,3,3,0,35,35,11,1253.5924123,1255.5923066,f,1,0.6887646000000132,P7,2023-06-09_14h47.43.260,StroopExp,2022.2.5,59.86722646520437,
b4,stroop_trial_condtions/b3.xlsx,0.38862864409579867,1,congruent,RED,red,a,distractors/4.wav,,,,,0,3,3,3,0,36,36,17,1258.0748463,1260.0737118000002,a,1,0.7707952999999179,P7,2023-06-09_14h47.43.260,StroopExp,2022.2.5,59.86722646520437,
b4,stroop_trial_condtions/b3.xlsx,0.5857626834280144,1,congruent,GREEN,green,s,distractors/2.wav,,,,,0,3,3,3,0,37,37,18,1262.5897418999998,1264.5888132999999,s,1,1.147095299999819,P7,2023-06-09_14h47.43.260,StroopExp,2022.2.5,59.86722646520437,
b4,stroop_trial_condtions/b3.xlsx,0.2532365547687505,1,congruent,GREEN,green,s,distractors/1.wav,,,,,0,3,3,3,0,38,38,10,1267.0882244999998,1269.0874457,s,1,1.0937521999999262,P7,2023-06-09_14h47.43.260,StroopExp,2022.2.5,59.86722646520437,
b4,stroop_trial_condtions/b3.xlsx,0.22157820962509556,1,incongruent,RED,green,s,distractors/4.wav,,,,,0,3,3,3,0,39,39,26,1271.6032013,1273.6022494,s,1,0.6835302999998021,P7,2023-06-09_14h47.43.260,StroopExp,2022.2.5,59.86722646520437,
b4,stroop_trial_condtions/b3.xlsx,0.8543495536120658,1,congruent,YELLOW,yellow,f,distractors/3.wav,,,,,0,3,3,3,0,40,40,27,1276.1023992,,f,1,0.7804885000000468,P7,2023-06-09_14h47.43.260,StroopExp,2022.2.5,59.86722646520437,
b4,stroop_trial_condtions/b3.xlsx,0.6296527572668619,1,incongruent,GREEN,red,a,distractors/4.wav,,,,,0,3,3,3,0,41,41,24,1280.6168527999998,1282.6161605000002,a,1,0.8808769999996002,P7,2023-06-09_14h47.43.260,StroopExp,2022.2.5,59.86722646520437,
b4,stroop_trial_condtions/b3.xlsx,0.21782885511366679,1,incongruent,GREEN,blue,d,distractors/1.wav,,,,,0,3,3,3,0,42,42,44,1285.1319139000002,1287.1311581,d,1,0.8594388999999865,P7,2023-06-09_14h47.43.260,StroopExp,2022.2.5,59.86722646520437,
b4,stroop_trial_condtions/b3.xlsx,0.5524115762504958,1,incongruent,GREEN,blue,d,distractors/4.wav,,,,,0,3,3,3,0,43,43,15,1289.6479943999998,1291.6477568999999,d,1,0.7874249999999847,P7,2023-06-09_14h47.43.260,StroopExp,2022.2.5,59.86722646520437,
b4,stroop_trial_condtions/b3.xlsx,0.4256101321124697,1,congruent,BLUE,blue,d,distractors/4.wav,,,,,0,3,3,3,0,44,44,9,1294.1313719,1296.1312162,d,1,0.7619432999999844,P7,2023-06-09_14h47.43.260,StroopExp,2022.2.5,59.86722646520437,
b4,stroop_trial_condtions/b3.xlsx,0.1398429663424724,1,congruent,GREEN,green,s,distractors/2.wav,,,,,0,3,3,3,0,45,45,8,1298.6276727,1300.6269969,s,1,0.6333021000000372,P7,2023-06-09_14h47.43.260,StroopExp,2022.2.5,59.86722646520437,
b4,stroop_trial_condtions/b3.xlsx,0.4909534620648366,1,congruent,GREEN,green,s,distractors/4.wav,,,,,0,3,3,3,0,46,46,1,1303.1262563999999,,s,1,0.6891319000001204,P7,2023-06-09_14h47.43.260,StroopExp,2022.2.5,59.86722646520437,
b4,stroop_trial_condtions/b3.xlsx,0.8010105832360127,1,incongruent,RED,blue,d,distractors/2.wav,,,,,0,3,3,3,0,47,47,13,1307.6410059,,d,1,0.8006811000000198,P7,2023-06-09_14h47.43.260,StroopExp,2022.2.5,59.86722646520437,
