block_number,location,Index,has_distraction,trial_type,word,color,correct_key,distraction_file_name,practice_trials_4X5.thisRepN,practice_trials_4X5.thisTrialN,practice_trials_4X5.thisN,practice_trials_4X5.thisIndex,blocks.thisRepN,blocks.thisTrialN,blocks.thisN,blocks.thisIndex,trials.thisRepN,trials.thisTrialN,trials.thisN,trials.thisIndex,key_stroop.started,key_stroop.stopped,key_stroop.keys,key_stroop.corr,key_stroop.rt,participant,date,expName,psychopyVersion,frameRate,
b1,stroop_trial_condtions/b1.xlsx,0.19133216126723684,0,congruent,GREEN,green,s,distractors/silence.wav,,,,,0,0,0,0,0,0,0,43,395.7749395000001,397.7745219000001,s,1,0.8783849999999802,P5,2023-06-09_11h26.02.781,StroopExp,2022.2.5,59.973539674277966,
b1,stroop_trial_condtions/b1.xlsx,0.8969522657404946,0,incongruent,YELLOW,blue,d,distractors/silence.wav,,,,,0,0,0,0,0,1,1,25,400.28996970000003,402.28905340000006,d,1,1.0133522000000994,P5,2023-06-09_11h26.02.781,StroopExp,2022.2.5,59.973539674277966,
b1,stroop_trial_condtions/b1.xlsx,0.45159790316989123,0,congruent,BLUE,blue,d,distractors/silence.wav,,,,,0,0,0,0,0,2,2,22,404.7879407999999,406.7875623,d,1,0.9136074000000463,P5,2023-06-09_11h26.02.781,StroopExp,2022.2.5,59.973539674277966,
b1,stroop_trial_condtions/b1.xlsx,0.9765691810900071,0,incongruent,YELLOW,blue,d,distractors/silence.wav,,,,,0,0,0,0,0,3,3,39,409.28674750000005,411.2857423999999,d,1,0.9987966999999571,P5,2023-06-09_11h26.02.781,StroopExp,2022.2.5,59.973539674277966,
b1,stroop_trial_condtions/b1.xlsx,0.07711709789910381,0,incongruent,BLUE,red,a,distractors/silence.wav,,,,,0,0,0,0,0,4,4,35,413.7857317999999,415.7855698000001,a,1,0.8779452000001129,P5,2023-06-09_11h26.02.781,StroopExp,2022.2.5,59.973539674277966,
b1,stroop_trial_condtions/b1.xlsx,0.7296842337577286,0,incongruent,BLUE,red,a,distractors/silence.wav,,,,,0,0,0,0,0,5,5,29,418.26924529999997,420.28249329999994,a,1,0.7022481000001335,P5,2023-06-09_11h26.02.781,StroopExp,2022.2.5,59.973539674277966,
b1,stroop_trial_condtions/b1.xlsx,0.6478411009005055,0,incongruent,GREEN,red,a,distractors/silence.wav,,,,,0,0,0,0,0,6,6,6,422.7651034999999,424.76446480000004,a,1,0.7265798000000814,P5,2023-06-09_11h26.02.781,StroopExp,2022.2.5,59.973539674277966,
b1,stroop_trial_condtions/b1.xlsx,0.9836363330757953,0,incongruent,RED,yellow,f,distractors/silence.wav,,,,,0,0,0,0,0,7,7,10,427.26368219999995,429.2632758,f,1,1.3277917000000343,P5,2023-06-09_11h26.02.781,StroopExp,2022.2.5,59.973539674277966,
b1,stroop_trial_condtions/b1.xlsx,0.6604351330374253,0,congruent,GREEN,green,s,distractors/silence.wav,,,,,0,0,0,0,0,8,8,4,431.7790783999999,433.77837569999997,s,1,1.262430600000016,P5,2023-06-09_11h26.02.781,StroopExp,2022.2.5,59.973539674277966,
b1,stroop_trial_condtions/b1.xlsx,0.6869684900918854,0,congruent,YELLOW,yellow,f,distractors/silence.wav,,,,,0,0,0,0,0,9,9,45,436.2941897999999,438.29377249999993,f,1,1.129110300000093,P5,2023-06-09_11h26.02.781,StroopExp,2022.2.5,59.973539674277966,
b1,stroop_trial_condtions/b1.xlsx,0.9350978434171133,0,incongruent,RED,blue,d,distractors/silence.wav,,,,,0,0,0,0,0,10,10,17,440.8094584999999,,d,1,0.8295255999998972,P5,2023-06-09_11h26.02.781,StroopExp,2022.2.5,59.973539674277966,
b1,stroop_trial_condtions/b1.xlsx,0.019360950480176498,0,incongruent,YELLOW,green,s,distractors/silence.wav,,,,,0,0,0,0,0,11,11,2,445.3242444,447.3238059999999,s,1,0.9110977999998795,P5,2023-06-09_11h26.02.781,StroopExp,2022.2.5,59.973539674277966,
b1,stroop_trial_condtions/b1.xlsx,0.23739699734220088,0,incongruent,GREEN,blue,d,distractors/silence.wav,,,,,0,0,0,0,0,12,12,18,449.8224954,451.82243990000006,d,1,1.2502847000000656,P5,2023-06-09_11h26.02.781,StroopExp,2022.2.5,59.973539674277966,
b1,stroop_trial_condtions/b1.xlsx,0.674408475762876,0,incongruent,BLUE,yellow,f,distractors/silence.wav,,,,,0,0,0,0,0,13,13,26,454.3380150999999,456.3375765999999,f,1,0.975604199999907,P5,2023-06-09_11h26.02.781,StroopExp,2022.2.5,59.973539674277966,
b1,stroop_trial_condtions/b1.xlsx,0.8708935669205526,0,congruent,RED,red,a,distractors/silence.wav,,,,,0,0,0,0,0,14,14,9,458.8534262999999,460.8530788999999,a,1,1.0505126000000473,P5,2023-06-09_11h26.02.781,StroopExp,2022.2.5,59.973539674277966,
b1,stroop_trial_condtions/b1.xlsx,0.5831965246907577,0,congruent,BLUE,blue,d,distractors/silence.wav,,,,,0,0,0,0,0,15,15,44,463.3529146000001,465.3533348000001,d,1,0.9251423999999133,P5,2023-06-09_11h26.02.781,StroopExp,2022.2.5,59.973539674277966,
b1,stroop_trial_condtions/b1.xlsx,0.15319618406080382,0,incongruent,YELLOW,green,s,distractors/silence.wav,,,,,0,0,0,0,0,16,16,31,467.8531826000001,469.8698428,s,1,0.6503854000000047,P5,2023-06-09_11h26.02.781,StroopExp,2022.2.5,59.973539674277966,
b1,stroop_trial_condtions/b1.xlsx,0.9366695365255577,0,incongruent,GREEN,yellow,f,distractors/silence.wav,,,,,0,0,0,0,0,17,17,34,472.3653858,474.3649703000001,f,1,1.016564600000038,P5,2023-06-09_11h26.02.781,StroopExp,2022.2.5,59.973539674277966,
b1,stroop_trial_condtions/b1.xlsx,0.7445649241064577,0,congruent,GREEN,green,s,distractors/silence.wav,,,,,0,0,0,0,0,18,18,42,476.8803823999999,478.88030679999997,s,1,1.151133100000152,P5,2023-06-09_11h26.02.781,StroopExp,2022.2.5,59.973539674277966,
b1,stroop_trial_condtions/b1.xlsx,0.7336815417486652,0,incongruent,BLUE,green,s,distractors/silence.wav,,,,,0,0,0,0,0,19,19,15,481.3789133,483.3781263000001,s,1,0.7118669000001319,P5,2023-06-09_11h26.02.781,StroopExp,2022.2.5,59.973539674277966,
b1,stroop_trial_condtions/b1.xlsx,0.680507855371767,0,incongruent,GREEN,yellow,f,distractors/silence.wav,,,,,0,0,0,0,0,20,20,33,485.89404390000004,487.8932041999999,f,1,0.9833929000001262,P5,2023-06-09_11h26.02.781,StroopExp,2022.2.5,59.973539674277966,
b1,stroop_trial_condtions/b1.xlsx,0.5480879446861618,0,congruent,YELLOW,yellow,f,distractors/silence.wav,,,,,0,0,0,0,0,21,21,32,490.39253899999994,492.39246090000006,f,1,0.7426839999998265,P5,2023-06-09_11h26.02.781,StroopExp,2022.2.5,59.973539674277966,
b1,stroop_trial_condtions/b1.xlsx,0.9718580164963233,0,congruent,RED,red,a,distractors/silence.wav,,,,,0,0,0,0,0,22,22,0,494.90762240000004,496.90735670000004,a,1,0.7912393999999949,P5,2023-06-09_11h26.02.781,StroopExp,2022.2.5,59.973539674277966,
b1,stroop_trial_condtions/b1.xlsx,0.6252124205445847,0,congruent,GREEN,green,s,distractors/silence.wav,,,,,0,0,0,0,0,23,23,24,499.4228608000001,501.42243800000006,s,1,0.8859679000001961,P5,2023-06-09_11h26.02.781,StroopExp,2022.2.5,59.973539674277966,
b1,stroop_trial_condtions/b1.xlsx,0.832802100155878,0,incongruent,GREEN,red,a,distractors/silence.wav,,,,,0,0,0,0,0,24,24,41,503.93797240000004,505.9373475,a,1,0.9455183000000034,P5,2023-06-09_11h26.02.781,StroopExp,2022.2.5,59.973539674277966,
b1,stroop_trial_condtions/b1.xlsx,0.870406961301538,0,congruent,YELLOW,yellow,f,distractors/silence.wav,,,,,0,0,0,0,0,25,25,11,508.4365837,510.43709020000006,f,1,0.6888157999999294,P5,2023-06-09_11h26.02.781,StroopExp,2022.2.5,59.973539674277966,
b1,stroop_trial_condtions/b1.xlsx,0.2518748957010212,0,incongruent,GREEN,blue,d,distractors/silence.wav,,,,,0,0,0,0,0,26,26,37,512.9372590999999,514.9372406,d,1,0.7520543000000544,P5,2023-06-09_11h26.02.781,StroopExp,2022.2.5,59.973539674277966,
b1,stroop_trial_condtions/b1.xlsx,0.0729145768917061,0,congruent,BLUE,blue,d,distractors/silence.wav,,,,,0,0,0,0,0,27,27,3,517.4335421999999,519.4322576,d,1,0.7666535999999269,P5,2023-06-09_11h26.02.781,StroopExp,2022.2.5,59.973539674277966,
b1,stroop_trial_condtions/b1.xlsx,0.922953448054004,0,congruent,RED,red,a,distractors/silence.wav,,,,,0,0,0,0,0,28,28,40,521.9318393000001,523.9315584000001,a,1,0.8051531000000978,P5,2023-06-09_11h26.02.781,StroopExp,2022.2.5,59.973539674277966,
b1,stroop_trial_condtions/b1.xlsx,0.632437180452533,0,incongruent,RED,blue,d,distractors/silence.wav,,,,,0,0,0,0,0,29,29,19,526.4298411,528.4296049,d,1,0.8634926999998243,P5,2023-06-09_11h26.02.781,StroopExp,2022.2.5,59.973539674277966,
b1,stroop_trial_condtions/b1.xlsx,0.19939336354685822,0,congruent,YELLOW,yellow,f,distractors/silence.wav,,,,,0,0,0,0,0,30,30,23,530.9454581,532.9448348000001,f,1,0.8761594999998579,P5,2023-06-09_11h26.02.781,StroopExp,2022.2.5,59.973539674277966,
b1,stroop_trial_condtions/b1.xlsx,0.35032813659302076,0,congruent,GREEN,green,s,distractors/silence.wav,,,,,0,0,0,0,0,31,31,20,535.4438107999999,537.4429528000001,a,0,1.1338684000002104,P5,2023-06-09_11h26.02.781,StroopExp,2022.2.5,59.973539674277966,
b1,stroop_trial_condtions/b1.xlsx,0.004767373540519926,0,incongruent,RED,green,s,distractors/silence.wav,,,,,0,0,0,0,0,32,32,14,539.9590509,541.9586165000001,s,1,0.7760783000001084,P5,2023-06-09_11h26.02.781,StroopExp,2022.2.5,59.973539674277966,
b1,stroop_trial_condtions/b1.xlsx,0.41931537120590046,0,congruent,RED,red,a,distractors/silence.wav,,,,,0,0,0,0,0,33,33,38,544.4573713,546.4569147,a,1,0.8145578999999543,P5,2023-06-09_11h26.02.781,StroopExp,2022.2.5,59.973539674277966,
b1,stroop_trial_condtions/b1.xlsx,0.5794916014066622,0,congruent,RED,red,a,distractors/silence.wav,,,,,0,0,0,0,0,34,34,47,548.9561951999999,550.9552200999999,a,1,0.695186700000022,P5,2023-06-09_11h26.02.781,StroopExp,2022.2.5,59.973539674277966,
b1,stroop_trial_condtions/b1.xlsx,0.7089760381977726,0,congruent,GREEN,green,s,distractors/silence.wav,,,,,0,0,0,0,0,35,35,8,553.4377437999999,555.4377228000001,s,1,1.2913553000000775,P5,2023-06-09_11h26.02.781,StroopExp,2022.2.5,59.973539674277966,
b1,stroop_trial_condtions/b1.xlsx,0.5716507137496009,0,incongruent,YELLOW,red,a,distractors/silence.wav,,,,,0,0,0,0,0,36,36,5,557.9379414,559.9379375000001,a,1,1.085872800000061,P5,2023-06-09_11h26.02.781,StroopExp,2022.2.5,59.973539674277966,
b1,stroop_trial_condtions/b1.xlsx,0.25693203245358776,0,congruent,BLUE,blue,d,distractors/silence.wav,,,,,0,0,0,0,0,37,37,30,562.4217297,564.4379888000001,d,1,0.8330430999999408,P5,2023-06-09_11h26.02.781,StroopExp,2022.2.5,59.973539674277966,
b1,stroop_trial_condtions/b1.xlsx,0.5430706368691302,0,incongruent,BLUE,yellow,f,distractors/silence.wav,,,,,0,0,0,0,0,38,38,1,566.9331488,568.9327212999999,f,1,1.3782960000000912,P5,2023-06-09_11h26.02.781,StroopExp,2022.2.5,59.973539674277966,
b1,stroop_trial_condtions/b1.xlsx,0.4930182611236916,0,congruent,BLUE,blue,d,distractors/silence.wav,,,,,0,0,0,0,0,39,39,7,571.4315922000001,573.4315084,d,1,0.8621055000000979,P5,2023-06-09_11h26.02.781,StroopExp,2022.2.5,59.973539674277966,
b1,stroop_trial_condtions/b1.xlsx,0.6671969061834688,0,incongruent,RED,green,s,distractors/silence.wav,,,,,0,0,0,0,0,40,40,36,575.9299301000001,577.9297188999999,s,1,1.1139220000000023,P5,2023-06-09_11h26.02.781,StroopExp,2022.2.5,59.973539674277966,
b1,stroop_trial_condtions/b1.xlsx,0.5429940223524143,0,congruent,YELLOW,yellow,f,distractors/silence.wav,,,,,0,0,0,0,0,41,41,28,580.4455267999999,582.4449267,f,1,0.9412922000001345,P5,2023-06-09_11h26.02.781,StroopExp,2022.2.5,59.973539674277966,
b1,stroop_trial_condtions/b1.xlsx,0.4017822535991459,0,incongruent,YELLOW,red,a,distractors/silence.wav,,,,,0,0,0,0,0,42,42,12,584.9607363,,a,1,0.8993841000001339,P5,2023-06-09_11h26.02.781,StroopExp,2022.2.5,59.973539674277966,
b1,stroop_trial_condtions/b1.xlsx,0.8309483305278348,0,incongruent,BLUE,green,s,distractors/silence.wav,,,,,0,0,0,0,0,43,43,46,589.4756405999999,591.4748084,s,1,1.8328137999999399,P5,2023-06-09_11h26.02.781,StroopExp,2022.2.5,59.973539674277966,
b1,stroop_trial_condtions/b1.xlsx,0.9396621068767484,0,congruent,RED,red,a,distractors/silence.wav,,,,,0,0,0,0,0,44,44,21,593.9577944,595.9569194000001,a,1,0.7303650999999718,P5,2023-06-09_11h26.02.781,StroopExp,2022.2.5,59.973539674277966,
b1,stroop_trial_condtions/b1.xlsx,0.9769421455207146,0,congruent,BLUE,blue,d,distractors/silence.wav,,,,,0,0,0,0,0,45,45,13,598.4728680999999,,d,1,1.5041909999999916,P5,2023-06-09_11h26.02.781,StroopExp,2022.2.5,59.973539674277966,
b1,stroop_trial_condtions/b1.xlsx,0.027168618358859753,0,incongruent,RED,yellow,f,distractors/silence.wav,,,,,0,0,0,0,0,46,46,27,602.988464,604.9885601999999,f,1,0.9233179000000291,P5,2023-06-09_11h26.02.781,StroopExp,2022.2.5,59.973539674277966,
b1,stroop_trial_condtions/b1.xlsx,0.24919007739364696,0,congruent,YELLOW,yellow,f,distractors/silence.wav,,,,,0,0,0,0,0,47,47,16,607.4880627,609.4883418,f,1,1.1593889000000672,P5,2023-06-09_11h26.02.781,StroopExp,2022.2.5,59.973539674277966,
b2,stroop_trial_condtions/b2.xlsx,0.6295899639289376,1,congruent,RED,red,a,distractors/2.wav,,,,,0,1,1,1,0,0,0,11,723.581938,,a,1,0.682780399999956,P5,2023-06-09_11h26.02.781,StroopExp,2022.2.5,59.973539674277966,
b2,stroop_trial_condtions/b2.xlsx,0.011991741755762342,1,congruent,RED,red,a,distractors/4.wav,,,,,0,1,1,1,0,1,1,42,728.0953818999999,730.0949946999999,a,1,0.6075829999999769,P5,2023-06-09_11h26.02.781,StroopExp,2022.2.5,59.973539674277966,
b2,stroop_trial_condtions/b2.xlsx,0.9734714245974094,1,congruent,BLUE,blue,d,distractors/2.wav,,,,,0,1,1,1,0,2,2,1,732.6106857,734.6278651,d,1,0.8091814000001705,P5,2023-06-09_11h26.02.781,StroopExp,2022.2.5,59.973539674277966,
b2,stroop_trial_condtions/b2.xlsx,0.8857086195357853,1,congruent,BLUE,blue,d,distractors/1.wav,,,,,0,1,1,1,0,3,3,16,737.1090027,739.1085447999999,d,1,0.7277887000000192,P5,2023-06-09_11h26.02.781,StroopExp,2022.2.5,59.973539674277966,
b2,stroop_trial_condtions/b2.xlsx,0.03433248455064386,1,incongruent,YELLOW,red,a,distractors/2.wav,,,,,0,1,1,1,0,4,4,13,741.6075916,743.6072236,a,1,1.096085599999924,P5,2023-06-09_11h26.02.781,StroopExp,2022.2.5,59.973539674277966,
b2,stroop_trial_condtions/b2.xlsx,0.5224761727455313,1,incongruent,RED,blue,d,distractors/1.wav,,,,,0,1,1,1,0,5,5,20,746.1072328999999,748.107203,d,1,0.8939857000000302,P5,2023-06-09_11h26.02.781,StroopExp,2022.2.5,59.973539674277966,
b2,stroop_trial_condtions/b2.xlsx,0.041649080139953165,1,incongruent,RED,yellow,f,distractors/4.wav,,,,,0,1,1,1,0,6,6,2,750.6071744000001,752.6268236000001,f,1,0.9522232000001623,P5,2023-06-09_11h26.02.781,StroopExp,2022.2.5,59.973539674277966,
b2,stroop_trial_condtions/b2.xlsx,0.08769688168855672,1,incongruent,RED,green,s,distractors/3.wav,,,,,0,1,1,1,0,7,7,47,755.1033396999999,,s,1,0.8236962999999378,P5,2023-06-09_11h26.02.781,StroopExp,2022.2.5,59.973539674277966,
b2,stroop_trial_condtions/b2.xlsx,0.15564368800765982,1,incongruent,YELLOW,blue,d,distractors/3.wav,,,,,0,1,1,1,0,8,8,39,759.6010312999999,761.6010217,d,1,0.8959477000000788,P5,2023-06-09_11h26.02.781,StroopExp,2022.2.5,59.973539674277966,
b2,stroop_trial_condtions/b2.xlsx,0.7331852058029119,1,incongruent,GREEN,blue,d,distractors/4.wav,,,,,0,1,1,1,0,9,9,28,764.1329920999999,766.1326779000001,d,1,0.7335669999999936,P5,2023-06-09_11h26.02.781,StroopExp,2022.2.5,59.973539674277966,
b2,stroop_trial_condtions/b2.xlsx,0.5007983240031381,1,incongruent,BLUE,green,s,distractors/1.wav,,,,,0,1,1,1,0,10,10,18,768.6147639999999,770.6141249,s,1,0.7859214000000065,P5,2023-06-09_11h26.02.781,StroopExp,2022.2.5,59.973539674277966,
b2,stroop_trial_condtions/b2.xlsx,0.8135146664790234,1,incongruent,GREEN,red,a,distractors/3.wav,,,,,0,1,1,1,0,11,11,40,773.1467289,775.1460778000001,a,1,0.6965640999999323,P5,2023-06-09_11h26.02.781,StroopExp,2022.2.5,59.973539674277966,
b2,stroop_trial_condtions/b2.xlsx,0.14441839566692105,1,congruent,GREEN,green,s,distractors/1.wav,,,,,0,1,1,1,0,12,12,43,777.6621447,779.6614327,d,0,0.7207667999998648,P5,2023-06-09_11h26.02.781,StroopExp,2022.2.5,59.973539674277966,
b2,stroop_trial_condtions/b2.xlsx,0.4249079497252247,1,congruent,GREEN,green,s,distractors/2.wav,,,,,0,1,1,1,0,13,13,4,782.1608251,784.1600708999999,s,1,0.7165657000000465,P5,2023-06-09_11h26.02.781,StroopExp,2022.2.5,59.973539674277966,
b2,stroop_trial_condtions/b2.xlsx,0.7676806241710538,1,congruent,BLUE,blue,d,distractors/3.wav,,,,,0,1,1,1,0,14,14,32,786.6760314999999,788.6750723,d,1,0.860923099999809,P5,2023-06-09_11h26.02.781,StroopExp,2022.2.5,59.973539674277966,
b2,stroop_trial_condtions/b2.xlsx,0.4889714654954811,1,incongruent,BLUE,red,a,distractors/4.wav,,,,,0,1,1,1,0,15,15,29,791.1744581999999,793.1745573999999,a,1,0.6945129999999153,P5,2023-06-09_11h26.02.781,StroopExp,2022.2.5,59.973539674277966,
b2,stroop_trial_condtions/b2.xlsx,0.5317591854488619,1,congruent,YELLOW,yellow,f,distractors/2.wav,,,,,0,1,1,1,0,16,16,34,795.657776,797.6578688,f,1,0.7784215000001495,P5,2023-06-09_11h26.02.781,StroopExp,2022.2.5,59.973539674277966,
b2,stroop_trial_condtions/b2.xlsx,0.8140627153069117,1,congruent,BLUE,blue,d,distractors/2.wav,,,,,0,1,1,1,0,17,17,36,800.1412682,802.1533560999999,d,1,0.8166992000001301,P5,2023-06-09_11h26.02.781,StroopExp,2022.2.5,59.973539674277966,
b2,stroop_trial_condtions/b2.xlsx,0.9005674222221599,1,congruent,BLUE,blue,d,distractors/2.wav,,,,,0,1,1,1,0,18,18,30,804.669754,,d,1,0.5760998000000654,P5,2023-06-09_11h26.02.781,StroopExp,2022.2.5,59.973539674277966,
b2,stroop_trial_condtions/b2.xlsx,0.8384300714767312,1,congruent,RED,red,a,distractors/1.wav,,,,,0,1,1,1,0,19,19,25,809.1847862,811.1841729,a,1,0.7127593000000161,P5,2023-06-09_11h26.02.781,StroopExp,2022.2.5,59.973539674277966,
b2,stroop_trial_condtions/b2.xlsx,0.3293331866279865,1,incongruent,YELLOW,green,s,distractors/2.wav,,,,,0,1,1,1,0,20,20,6,813.6831178,815.6824240999999,s,1,1.1536902999998802,P5,2023-06-09_11h26.02.781,StroopExp,2022.2.5,59.973539674277966,
b2,stroop_trial_condtions/b2.xlsx,0.3240706252403076,1,congruent,YELLOW,yellow,f,distractors/3.wav,,,,,0,1,1,1,0,21,21,15,818.1820975999999,,f,1,0.7824379000001045,P5,2023-06-09_11h26.02.781,StroopExp,2022.2.5,59.973539674277966,
b2,stroop_trial_condtions/b2.xlsx,0.828978615866739,1,incongruent,RED,yellow,f,distractors/4.wav,,,,,0,1,1,1,0,22,22,31,822.6969082,824.6960294999999,f,1,0.6805233999998563,P5,2023-06-09_11h26.02.781,StroopExp,2022.2.5,59.973539674277966,
b2,stroop_trial_condtions/b2.xlsx,0.4832744640468789,1,congruent,YELLOW,yellow,f,distractors/1.wav,,,,,0,1,1,1,0,23,23,24,827.2116303999999,829.2117593,f,1,0.7693504000001212,P5,2023-06-09_11h26.02.781,StroopExp,2022.2.5,59.973539674277966,
b2,stroop_trial_condtions/b2.xlsx,0.5666506333865139,1,incongruent,GREEN,yellow,f,distractors/3.wav,,,,,0,1,1,1,0,24,24,0,831.7103714,833.7099499999999,f,1,0.7665248999999221,P5,2023-06-09_11h26.02.781,StroopExp,2022.2.5,59.973539674277966,
b2,stroop_trial_condtions/b2.xlsx,0.16494802758791438,1,congruent,GREEN,green,s,distractors/4.wav,,,,,0,1,1,1,0,25,25,23,836.2090330999999,838.2084285000001,s,1,0.9003433000000314,P5,2023-06-09_11h26.02.781,StroopExp,2022.2.5,59.973539674277966,
b2,stroop_trial_condtions/b2.xlsx,0.9668213022564922,1,congruent,BLUE,blue,d,distractors/2.wav,,,,,0,1,1,1,0,26,26,21,840.6914778999999,842.6918526,d,1,0.8736363999998957,P5,2023-06-09_11h26.02.781,StroopExp,2022.2.5,59.973539674277966,
b2,stroop_trial_condtions/b2.xlsx,0.776926077509408,1,incongruent,GREEN,blue,d,distractors/4.wav,,,,,0,1,1,1,0,27,27,22,845.1753080999999,847.1752597,d,1,1.1336284000001342,P5,2023-06-09_11h26.02.781,StroopExp,2022.2.5,59.973539674277966,
b2,stroop_trial_condtions/b2.xlsx,0.255397179890806,1,congruent,YELLOW,yellow,f,distractors/1.wav,,,,,0,1,1,1,0,28,28,45,849.6710433000001,851.6704453,f,1,0.842645100000027,P5,2023-06-09_11h26.02.781,StroopExp,2022.2.5,59.973539674277966,
b2,stroop_trial_condtions/b2.xlsx,0.23156741124673452,1,congruent,GREEN,green,s,distractors/4.wav,,,,,0,1,1,1,0,29,29,8,854.1862031999999,856.1855031,s,1,0.8850390999998581,P5,2023-06-09_11h26.02.781,StroopExp,2022.2.5,59.973539674277966,
b2,stroop_trial_condtions/b2.xlsx,0.10715468186921961,1,incongruent,BLUE,green,s,distractors/3.wav,,,,,0,1,1,1,0,30,30,33,858.7017134,,s,1,1.2571040000000266,P5,2023-06-09_11h26.02.781,StroopExp,2022.2.5,59.973539674277966,
b2,stroop_trial_condtions/b2.xlsx,0.10839814050721508,1,incongruent,RED,green,s,distractors/1.wav,,,,,0,1,1,1,0,31,31,14,863.216257,865.2160171999999,s,1,0.7926218000000063,P5,2023-06-09_11h26.02.781,StroopExp,2022.2.5,59.973539674277966,
b2,stroop_trial_condtions/b2.xlsx,0.7962676920675457,1,incongruent,RED,blue,d,distractors/4.wav,,,,,0,1,1,1,0,32,32,46,867.7310207,869.7308694000001,d,1,0.7679693000000043,P5,2023-06-09_11h26.02.781,StroopExp,2022.2.5,59.973539674277966,
b2,stroop_trial_condtions/b2.xlsx,0.3614790911510004,1,congruent,GREEN,green,s,distractors/1.wav,,,,,0,1,1,1,0,33,33,17,872.2298862,874.2295153,s,1,0.9530075000000124,P5,2023-06-09_11h26.02.781,StroopExp,2022.2.5,59.973539674277966,
b2,stroop_trial_condtions/b2.xlsx,0.5030786504893666,1,incongruent,YELLOW,green,s,distractors/4.wav,,,,,0,1,1,1,0,34,34,19,876.7284471,878.7278319,s,1,0.666973599999892,P5,2023-06-09_11h26.02.781,StroopExp,2022.2.5,59.973539674277966,
b2,stroop_trial_condtions/b2.xlsx,0.2950231286066718,1,incongruent,BLUE,red,a,distractors/1.wav,,,,,0,1,1,1,0,35,35,37,881.2271163999999,883.2263565000001,a,1,1.6697362999998404,P5,2023-06-09_11h26.02.781,StroopExp,2022.2.5,59.973539674277966,
b2,stroop_trial_condtions/b2.xlsx,0.6661419533997107,1,congruent,RED,red,a,distractors/2.wav,,,,,0,1,1,1,0,36,36,3,885.7422673000001,887.7424696999999,a,1,0.747313800000029,P5,2023-06-09_11h26.02.781,StroopExp,2022.2.5,59.973539674277966,
b2,stroop_trial_condtions/b2.xlsx,0.12819537203794318,1,incongruent,YELLOW,red,a,distractors/3.wav,,,,,0,1,1,1,0,37,37,35,890.2260279,892.2259896,a,1,0.6928874000000178,P5,2023-06-09_11h26.02.781,StroopExp,2022.2.5,59.973539674277966,
b2,stroop_trial_condtions/b2.xlsx,0.33083395410092575,1,incongruent,BLUE,yellow,f,distractors/4.wav,,,,,0,1,1,1,0,38,38,5,894.7261079,896.7383729000001,f,1,0.6576227000000472,P5,2023-06-09_11h26.02.781,StroopExp,2022.2.5,59.973539674277966,
b2,stroop_trial_condtions/b2.xlsx,0.7131950070563138,1,congruent,GREEN,green,s,distractors/2.wav,,,,,0,1,1,1,0,39,39,10,899.2373604,901.2375904,s,1,0.971546200000148,P5,2023-06-09_11h26.02.781,StroopExp,2022.2.5,59.973539674277966,
b2,stroop_trial_condtions/b2.xlsx,0.3400635619663932,1,congruent,YELLOW,yellow,f,distractors/3.wav,,,,,0,1,1,1,0,40,40,12,903.7359845000001,905.7353317,f,1,0.7571113999999852,P5,2023-06-09_11h26.02.781,StroopExp,2022.2.5,59.973539674277966,
b2,stroop_trial_condtions/b2.xlsx,0.8586137871935915,1,incongruent,YELLOW,blue,d,distractors/3.wav,,,,,0,1,1,1,0,41,41,44,908.2515275999999,910.2506738,d,1,1.2799989999998616,P5,2023-06-09_11h26.02.781,StroopExp,2022.2.5,59.973539674277966,
b2,stroop_trial_condtions/b2.xlsx,0.06502382441476195,1,incongruent,GREEN,yellow,f,distractors/1.wav,,,,,0,1,1,1,0,42,42,7,912.7496643,914.7491952,f,1,1.4893366000001151,P5,2023-06-09_11h26.02.781,StroopExp,2022.2.5,59.973539674277966,
b2,stroop_trial_condtions/b2.xlsx,0.09088957165746492,1,congruent,RED,red,a,distractors/3.wav,,,,,0,1,1,1,0,43,43,41,917.2482897,919.2472834,a,1,0.8095782000000327,P5,2023-06-09_11h26.02.781,StroopExp,2022.2.5,59.973539674277966,
b2,stroop_trial_condtions/b2.xlsx,0.19636652195914828,1,incongruent,GREEN,red,a,distractors/1.wav,,,,,0,1,1,1,0,44,44,9,921.7633381,923.7629575000001,a,1,0.7018884999999955,P5,2023-06-09_11h26.02.781,StroopExp,2022.2.5,59.973539674277966,
b2,stroop_trial_condtions/b2.xlsx,0.06730533561031782,1,incongruent,BLUE,yellow,f,distractors/3.wav,,,,,0,1,1,1,0,45,45,26,926.2621569,928.2613466999999,f,1,0.916720899999973,P5,2023-06-09_11h26.02.781,StroopExp,2022.2.5,59.973539674277966,
b2,stroop_trial_condtions/b2.xlsx,0.21174317193635972,1,congruent,YELLOW,yellow,f,distractors/2.wav,,,,,0,1,1,1,0,46,46,38,930.7600617999999,932.7597558,f,1,0.82958409999992,P5,2023-06-09_11h26.02.781,StroopExp,2022.2.5,59.973539674277966,
b2,stroop_trial_condtions/b2.xlsx,0.4926856322739591,1,congruent,RED,red,a,distractors/4.wav,,,,,0,1,1,1,0,47,47,27,935.2433082,937.2432515,a,1,0.7694871999999577,P5,2023-06-09_11h26.02.781,StroopExp,2022.2.5,59.973539674277966,
b3,stroop_trial_condtions/b1.xlsx,0.5480879446861618,0,congruent,YELLOW,yellow,f,distractors/silence.wav,,,,,0,2,2,2,0,0,0,32,1022.6625035,1024.6618854,f,1,0.8544707000000926,P5,2023-06-09_11h26.02.781,StroopExp,2022.2.5,59.973539674277966,
b3,stroop_trial_condtions/b1.xlsx,0.8309483305278348,0,incongruent,BLUE,green,s,distractors/silence.wav,,,,,0,2,2,2,0,1,1,46,1027.1778766,1029.1779403,s,1,0.7935261999998602,P5,2023-06-09_11h26.02.781,StroopExp,2022.2.5,59.973539674277966,
b3,stroop_trial_condtions/b1.xlsx,0.870406961301538,0,congruent,YELLOW,yellow,f,distractors/silence.wav,,,,,0,2,2,2,0,2,2,11,1031.6613611,1033.6611819,f,1,0.8668999999999869,P5,2023-06-09_11h26.02.781,StroopExp,2022.2.5,59.973539674277966,
b3,stroop_trial_condtions/b1.xlsx,0.680507855371767,0,incongruent,GREEN,yellow,f,distractors/silence.wav,,,,,0,2,2,2,0,3,3,33,1036.1447722,1038.1572607,f,1,1.0925332000001617,P5,2023-06-09_11h26.02.781,StroopExp,2022.2.5,59.973539674277966,
b3,stroop_trial_condtions/b1.xlsx,0.6869684900918854,0,congruent,YELLOW,yellow,f,distractors/silence.wav,,,,,0,2,2,2,0,4,4,45,1040.6572041,,f,1,0.628124600000092,P5,2023-06-09_11h26.02.781,StroopExp,2022.2.5,59.973539674277966,
b3,stroop_trial_condtions/b1.xlsx,0.45159790316989123,0,congruent,BLUE,blue,d,distractors/silence.wav,,,,,0,2,2,2,0,5,5,22,1045.1546033,1047.1546579,d,1,0.830765700000029,P5,2023-06-09_11h26.02.781,StroopExp,2022.2.5,59.973539674277966,
b3,stroop_trial_condtions/b1.xlsx,0.2518748957010212,0,incongruent,GREEN,blue,d,distractors/silence.wav,,,,,0,2,2,2,0,6,6,37,1049.6702595,1051.6696292,d,1,0.5565265999998701,P5,2023-06-09_11h26.02.781,StroopExp,2022.2.5,59.973539674277966,
b3,stroop_trial_condtions/b1.xlsx,0.019360950480176498,0,incongruent,YELLOW,green,s,distractors/silence.wav,,,,,0,2,2,2,0,7,7,2,1054.1854063,1056.1847183,s,1,0.7534442999999555,P5,2023-06-09_11h26.02.781,StroopExp,2022.2.5,59.973539674277966,
b3,stroop_trial_condtions/b1.xlsx,0.5429940223524143,0,congruent,YELLOW,yellow,f,distractors/silence.wav,,,,,0,2,2,2,0,8,8,28,1058.6835692,1060.6851566999999,f,1,1.2776916000000256,P5,2023-06-09_11h26.02.781,StroopExp,2022.2.5,59.973539674277966,
b3,stroop_trial_condtions/b1.xlsx,0.0729145768917061,0,congruent,BLUE,blue,d,distractors/silence.wav,,,,,0,2,2,2,0,9,9,3,1063.1825515,,d,1,0.8850319999999101,P5,2023-06-09_11h26.02.781,StroopExp,2022.2.5,59.973539674277966,
b3,stroop_trial_condtions/b1.xlsx,0.19133216126723684,0,congruent,GREEN,green,s,distractors/silence.wav,,,,,0,2,2,2,0,10,10,43,1067.6973389,1069.6966497,s,1,0.9234573999999611,P5,2023-06-09_11h26.02.781,StroopExp,2022.2.5,59.973539674277966,
b3,stroop_trial_condtions/b1.xlsx,0.832802100155878,0,incongruent,GREEN,red,a,distractors/silence.wav,,,,,0,2,2,2,0,11,11,41,1072.2126373,1074.2120163,a,1,0.8285361999999168,P5,2023-06-09_11h26.02.781,StroopExp,2022.2.5,59.973539674277966,
b3,stroop_trial_condtions/b1.xlsx,0.027168618358859753,0,incongruent,RED,yellow,f,distractors/silence.wav,,,,,0,2,2,2,0,12,12,27,1076.7120777,1078.711933,f,1,1.0501334000000497,P5,2023-06-09_11h26.02.781,StroopExp,2022.2.5,59.973539674277966,
b3,stroop_trial_condtions/b1.xlsx,0.6252124205445847,0,congruent,GREEN,green,s,distractors/silence.wav,,,,,0,2,2,2,0,13,13,24,1081.212151,1083.211748,s,1,1.2251248000000032,P5,2023-06-09_11h26.02.781,StroopExp,2022.2.5,59.973539674277966,
b3,stroop_trial_condtions/b1.xlsx,0.9718580164963233,0,congruent,RED,red,a,distractors/silence.wav,,,,,0,2,2,2,0,14,14,0,1085.7081212,1087.7073034,a,1,0.8088860000000295,P5,2023-06-09_11h26.02.781,StroopExp,2022.2.5,59.973539674277966,
b3,stroop_trial_condtions/b1.xlsx,0.9769421455207146,0,congruent,BLUE,blue,d,distractors/silence.wav,,,,,0,2,2,2,0,15,15,13,1090.2062878,1092.2057003,s,0,1.131169600000021,P5,2023-06-09_11h26.02.781,StroopExp,2022.2.5,59.973539674277966,
b3,stroop_trial_condtions/b1.xlsx,0.8969522657404946,0,incongruent,YELLOW,blue,d,distractors/silence.wav,,,,,0,2,2,2,0,16,16,25,1094.7045879,1096.7039124,d,1,0.6953539000001001,P5,2023-06-09_11h26.02.781,StroopExp,2022.2.5,59.973539674277966,
b3,stroop_trial_condtions/b1.xlsx,0.6478411009005055,0,incongruent,GREEN,red,a,distractors/silence.wav,,,,,0,2,2,2,0,17,17,6,1099.2033678,1101.2028073,a,1,0.6893525000000409,P5,2023-06-09_11h26.02.781,StroopExp,2022.2.5,59.973539674277966,
b3,stroop_trial_condtions/b1.xlsx,0.9765691810900071,0,incongruent,YELLOW,blue,d,distractors/silence.wav,,,,,0,2,2,2,0,18,18,39,1103.7183957,1105.7178804,a,0,0.9724502999999913,P5,2023-06-09_11h26.02.781,StroopExp,2022.2.5,59.973539674277966,
b3,stroop_trial_condtions/b1.xlsx,0.23739699734220088,0,incongruent,GREEN,blue,d,distractors/silence.wav,,,,,0,2,2,2,0,19,19,18,1108.233742,1110.2327017,s,0,0.6479981000002226,P5,2023-06-09_11h26.02.781,StroopExp,2022.2.5,59.973539674277966,
b3,stroop_trial_condtions/b1.xlsx,0.41931537120590046,0,congruent,RED,red,a,distractors/silence.wav,,,,,0,2,2,2,0,20,20,38,1112.7322,1114.7315826,a,1,0.7647422000000006,P5,2023-06-09_11h26.02.781,StroopExp,2022.2.5,59.973539674277966,
b3,stroop_trial_condtions/b1.xlsx,0.4017822535991459,0,incongruent,YELLOW,red,a,distractors/silence.wav,,,,,0,2,2,2,0,21,21,12,1117.230618,1119.2302938999999,a,1,0.8001143000001321,P5,2023-06-09_11h26.02.781,StroopExp,2022.2.5,59.973539674277966,
b3,stroop_trial_condtions/b1.xlsx,0.07711709789910381,0,incongruent,BLUE,red,a,distractors/silence.wav,,,,,0,2,2,2,0,22,22,35,1121.7291265,1123.7292023,a,1,0.7556032999998479,P5,2023-06-09_11h26.02.781,StroopExp,2022.2.5,59.973539674277966,
b3,stroop_trial_condtions/b1.xlsx,0.4930182611236916,0,congruent,BLUE,blue,d,distractors/silence.wav,,,,,0,2,2,2,0,23,23,7,1126.2127413,1128.2123168,d,1,1.3348669999998037,P5,2023-06-09_11h26.02.781,StroopExp,2022.2.5,59.973539674277966,
b3,stroop_trial_condtions/b1.xlsx,0.5794916014066622,0,congruent,RED,red,a,distractors/silence.wav,,,,,0,2,2,2,0,24,24,47,1130.7130481,,a,1,0.7904548999999861,P5,2023-06-09_11h26.02.781,StroopExp,2022.2.5,59.973539674277966,
b3,stroop_trial_condtions/b1.xlsx,0.004767373540519926,0,incongruent,RED,green,s,distractors/silence.wav,,,,,0,2,2,2,0,25,25,14,1135.2239434,1137.2236573,s,1,1.1398838999998588,P5,2023-06-09_11h26.02.781,StroopExp,2022.2.5,59.973539674277966,
b3,stroop_trial_condtions/b1.xlsx,0.5430706368691302,0,incongruent,BLUE,yellow,f,distractors/silence.wav,,,,,0,2,2,2,0,26,26,1,1139.7228448,1141.7223352,f,1,0.9524276000001919,P5,2023-06-09_11h26.02.781,StroopExp,2022.2.5,59.973539674277966,
b3,stroop_trial_condtions/b1.xlsx,0.6671969061834688,0,incongruent,RED,green,s,distractors/silence.wav,,,,,0,2,2,2,0,27,27,36,1144.2381889,1146.2375092,s,1,0.9610538999997971,P5,2023-06-09_11h26.02.781,StroopExp,2022.2.5,59.973539674277966,
b3,stroop_trial_condtions/b1.xlsx,0.632437180452533,0,incongruent,RED,blue,d,distractors/silence.wav,,,,,0,2,2,2,0,28,28,19,1148.7533798,1150.7534818,d,1,0.9354703999999856,P5,2023-06-09_11h26.02.781,StroopExp,2022.2.5,59.973539674277966,
b3,stroop_trial_condtions/b1.xlsx,0.7296842337577286,0,incongruent,BLUE,red,a,distractors/silence.wav,,,,,0,2,2,2,0,29,29,29,1153.2515551,1155.251232,a,1,1.0413543999998183,P5,2023-06-09_11h26.02.781,StroopExp,2022.2.5,59.973539674277966,
b3,stroop_trial_condtions/b1.xlsx,0.9836363330757953,0,incongruent,RED,yellow,f,distractors/silence.wav,,,,,0,2,2,2,0,30,30,10,1157.7504978,,f,1,0.8913093000001027,P5,2023-06-09_11h26.02.781,StroopExp,2022.2.5,59.973539674277966,
b3,stroop_trial_condtions/b1.xlsx,0.15319618406080382,0,incongruent,YELLOW,green,s,distractors/silence.wav,,,,,0,2,2,2,0,31,31,31,1162.265239,1164.2650994,s,1,1.4020574999999553,P5,2023-06-09_11h26.02.781,StroopExp,2022.2.5,59.973539674277966,
b3,stroop_trial_condtions/b1.xlsx,0.35032813659302076,0,congruent,GREEN,green,s,distractors/silence.wav,,,,,0,2,2,2,0,32,32,20,1166.7635334,1168.7629933,s,1,0.8959744999999657,P5,2023-06-09_11h26.02.781,StroopExp,2022.2.5,59.973539674277966,
b3,stroop_trial_condtions/b1.xlsx,0.9350978434171133,0,incongruent,RED,blue,d,distractors/silence.wav,,,,,0,2,2,2,0,33,33,17,1171.246145,1173.2465118,d,1,1.203102399999807,P5,2023-06-09_11h26.02.781,StroopExp,2022.2.5,59.973539674277966,
b3,stroop_trial_condtions/b1.xlsx,0.5716507137496009,0,incongruent,YELLOW,red,a,distractors/silence.wav,,,,,0,2,2,2,0,34,34,5,1175.730353,1177.7299693,a,1,0.86052339999992,P5,2023-06-09_11h26.02.781,StroopExp,2022.2.5,59.973539674277966,
b3,stroop_trial_condtions/b1.xlsx,0.7445649241064577,0,congruent,GREEN,green,s,distractors/silence.wav,,,,,0,2,2,2,0,35,35,42,1180.2261384,1182.2251668,s,1,1.3471690999999737,P5,2023-06-09_11h26.02.781,StroopExp,2022.2.5,59.973539674277966,
b3,stroop_trial_condtions/b1.xlsx,0.9366695365255577,0,incongruent,GREEN,yellow,f,distractors/silence.wav,,,,,0,2,2,2,0,36,36,34,1184.7246114,1186.7237542999999,f,1,1.0791741000000457,P5,2023-06-09_11h26.02.781,StroopExp,2022.2.5,59.973539674277966,
b3,stroop_trial_condtions/b1.xlsx,0.24919007739364696,0,congruent,YELLOW,yellow,f,distractors/silence.wav,,,,,0,2,2,2,0,37,37,16,1189.2396689,1191.2388855,f,1,0.7101478999998108,P5,2023-06-09_11h26.02.781,StroopExp,2022.2.5,59.973539674277966,
b3,stroop_trial_condtions/b1.xlsx,0.6604351330374253,0,congruent,GREEN,green,s,distractors/silence.wav,,,,,0,2,2,2,0,38,38,4,1193.7377711,1195.7375459,s,1,1.3102859999999055,P5,2023-06-09_11h26.02.781,StroopExp,2022.2.5,59.973539674277966,
b3,stroop_trial_condtions/b1.xlsx,0.7336815417486652,0,incongruent,BLUE,green,s,distractors/silence.wav,,,,,0,2,2,2,0,39,39,15,1198.2365651,1200.2360722,s,1,0.9363727999998446,P5,2023-06-09_11h26.02.781,StroopExp,2022.2.5,59.973539674277966,
b3,stroop_trial_condtions/b1.xlsx,0.19939336354685822,0,congruent,YELLOW,yellow,f,distractors/silence.wav,,,,,0,2,2,2,0,40,40,23,1202.7349314,1204.7350192,f,1,0.8663249999999607,P5,2023-06-09_11h26.02.781,StroopExp,2022.2.5,59.973539674277966,
b3,stroop_trial_condtions/b1.xlsx,0.25693203245358776,0,congruent,BLUE,blue,d,distractors/silence.wav,,,,,0,2,2,2,0,41,41,30,1207.2501415,1209.2498876,d,1,1.113225199999988,P5,2023-06-09_11h26.02.781,StroopExp,2022.2.5,59.973539674277966,
b3,stroop_trial_condtions/b1.xlsx,0.922953448054004,0,congruent,RED,red,a,distractors/silence.wav,,,,,0,2,2,2,0,42,42,40,1211.7653287,1213.7647676,a,1,0.7640443999998752,P5,2023-06-09_11h26.02.781,StroopExp,2022.2.5,59.973539674277966,
b3,stroop_trial_condtions/b1.xlsx,0.5831965246907577,0,congruent,BLUE,blue,d,distractors/silence.wav,,,,,0,2,2,2,0,43,43,44,1216.2638999,1218.2635577,d,1,1.4260490000001482,P5,2023-06-09_11h26.02.781,StroopExp,2022.2.5,59.973539674277966,
b3,stroop_trial_condtions/b1.xlsx,0.674408475762876,0,incongruent,BLUE,yellow,f,distractors/silence.wav,,,,,0,2,2,2,0,44,44,26,1220.7472226,1222.7475178,f,1,0.8101405999998406,P5,2023-06-09_11h26.02.781,StroopExp,2022.2.5,59.973539674277966,
b3,stroop_trial_condtions/b1.xlsx,0.7089760381977726,0,congruent,GREEN,green,s,distractors/silence.wav,,,,,0,2,2,2,0,45,45,8,1225.2473875,,s,1,0.9494305999999142,P5,2023-06-09_11h26.02.781,StroopExp,2022.2.5,59.973539674277966,
b3,stroop_trial_condtions/b1.xlsx,0.9396621068767484,0,congruent,RED,red,a,distractors/silence.wav,,,,,0,2,2,2,0,46,46,21,1229.7592182,1231.7583124999999,a,1,0.7601824000000761,P5,2023-06-09_11h26.02.781,StroopExp,2022.2.5,59.973539674277966,
b3,stroop_trial_condtions/b1.xlsx,0.8708935669205526,0,congruent,RED,red,a,distractors/silence.wav,,,,,0,2,2,2,0,47,47,9,1234.2744797999999,1236.2736235,a,1,0.5991578999999092,P5,2023-06-09_11h26.02.781,StroopExp,2022.2.5,59.973539674277966,
b4,stroop_trial_condtions/b3.xlsx,0.9995126588586891,1,incongruent,GREEN,yellow,f,distractors/1.wav,,,,,0,3,3,3,0,0,0,39,1336.1232366999998,1338.1226901,f,1,1.015993399999843,P5,2023-06-09_11h26.02.781,StroopExp,2022.2.5,59.973539674277966,
b4,stroop_trial_condtions/b3.xlsx,0.21440578937717747,1,incongruent,GREEN,red,a,distractors/4.wav,,,,,0,3,3,3,0,1,1,29,1340.6048423000002,1342.6045236,a,1,0.7668081000001621,P5,2023-06-09_11h26.02.781,StroopExp,2022.2.5,59.973539674277966,
b4,stroop_trial_condtions/b3.xlsx,0.9277064063263939,1,incongruent,BLUE,red,a,distractors/1.wav,,,,,0,3,3,3,0,2,2,32,1345.1204272999998,1347.1196968,a,1,0.7886616000000686,P5,2023-06-09_11h26.02.781,StroopExp,2022.2.5,59.973539674277966,
b4,stroop_trial_condtions/b3.xlsx,0.46851590450319824,1,incongruent,YELLOW,green,s,distractors/1.wav,,,,,0,3,3,3,0,3,3,3,1349.6020883,1351.6019387000001,s,1,1.2027793999995993,P5,2023-06-09_11h26.02.781,StroopExp,2022.2.5,59.973539674277966,
b4,stroop_trial_condtions/b3.xlsx,0.5091952837801443,1,congruent,RED,red,a,distractors/3.wav,,,,,0,3,3,3,0,4,4,23,1354.1171458,1356.1164069000001,a,1,0.7499630000002071,P5,2023-06-09_11h26.02.781,StroopExp,2022.2.5,59.973539674277966,
b4,stroop_trial_condtions/b3.xlsx,0.22948030212444814,1,congruent,YELLOW,yellow,f,distractors/3.wav,,,,,0,3,3,3,0,5,5,0,1358.6155365999998,1360.6156806,f,1,1.0878321999998661,P5,2023-06-09_11h26.02.781,StroopExp,2022.2.5,59.973539674277966,
b4,stroop_trial_condtions/b3.xlsx,0.9654449717548405,1,congruent,BLUE,blue,d,distractors/2.wav,,,,,0,3,3,3,0,6,6,2,1363.1158334000002,1365.1161923999998,d,1,0.901502800000344,P5,2023-06-09_11h26.02.781,StroopExp,2022.2.5,59.973539674277966,
b4,stroop_trial_condtions/b3.xlsx,0.8016808924679877,1,incongruent,YELLOW,red,a,distractors/3.wav,,,,,0,3,3,3,0,7,7,35,1367.5994847000002,1369.6117656000001,a,1,0.8094921999995677,P5,2023-06-09_11h26.02.781,StroopExp,2022.2.5,59.973539674277966,
b4,stroop_trial_condtions/b3.xlsx,0.6000084328909321,1,congruent,BLUE,blue,d,distractors/3.wav,,,,,0,3,3,3,0,8,8,42,1372.1110208999999,1374.110153,d,1,0.8124442999996973,P5,2023-06-09_11h26.02.781,StroopExp,2022.2.5,59.973539674277966,
b4,stroop_trial_condtions/b3.xlsx,0.10397582984293274,1,incongruent,BLUE,green,s,distractors/1.wav,,,,,0,3,3,3,0,9,9,47,1376.6094407,1378.6082634,s,1,0.8533989000002293,P5,2023-06-09_11h26.02.781,StroopExp,2022.2.5,59.973539674277966,
b4,stroop_trial_condtions/b3.xlsx,0.7490878176166669,1,congruent,GREEN,green,s,distractors/2.wav,,,,,0,3,3,3,0,10,10,46,1381.1078613999998,1383.1082557999998,s,1,1.0889047000000573,P5,2023-06-09_11h26.02.781,StroopExp,2022.2.5,59.973539674277966,
b4,stroop_trial_condtions/b3.xlsx,0.2532365547687505,1,congruent,GREEN,green,s,distractors/1.wav,,,,,0,3,3,3,0,11,11,10,1385.6064059999999,1387.6055299999998,s,1,0.8671395000001212,P5,2023-06-09_11h26.02.781,StroopExp,2022.2.5,59.973539674277966,
b4,stroop_trial_condtions/b3.xlsx,0.4909534620648366,1,congruent,GREEN,green,s,distractors/4.wav,,,,,0,3,3,3,0,12,12,1,1390.1380817999998,1392.1375997999999,s,1,0.6933899000000565,P5,2023-06-09_11h26.02.781,StroopExp,2022.2.5,59.973539674277966,
b4,stroop_trial_condtions/b3.xlsx,0.09103571529527676,1,incongruent,BLUE,yellow,f,distractors/3.wav,,,,,0,3,3,3,0,13,13,7,1394.6364850999998,1396.6365683,f,1,0.9370554000001903,P5,2023-06-09_11h26.02.781,StroopExp,2022.2.5,59.973539674277966,
b4,stroop_trial_condtions/b3.xlsx,0.568990759527847,1,congruent,BLUE,blue,d,distractors/3.wav,,,,,0,3,3,3,0,14,14,28,1399.1515903999998,1401.1514378000002,d,1,0.9176446999999825,P5,2023-06-09_11h26.02.781,StroopExp,2022.2.5,59.973539674277966,
b4,stroop_trial_condtions/b3.xlsx,0.5121364174675235,1,congruent,BLUE,blue,d,distractors/3.wav,,,,,0,3,3,3,0,15,15,40,1403.6502931,1405.6496917999998,d,1,0.9172699999999168,P5,2023-06-09_11h26.02.781,StroopExp,2022.2.5,59.973539674277966,
b4,stroop_trial_condtions/b3.xlsx,0.45744716647321115,1,congruent,RED,red,a,distractors/1.wav,,,,,0,3,3,3,0,16,16,41,1408.1495415,1410.1499482,a,1,0.604150699999991,P5,2023-06-09_11h26.02.781,StroopExp,2022.2.5,59.973539674277966,
b4,stroop_trial_condtions/b3.xlsx,0.38862864409579867,1,congruent,RED,red,a,distractors/4.wav,,,,,0,3,3,3,0,17,17,17,1412.6330661000002,1414.6331452999998,a,1,0.5839128000002347,P5,2023-06-09_11h26.02.781,StroopExp,2022.2.5,59.973539674277966,
b4,stroop_trial_condtions/b3.xlsx,0.28983611898456463,1,incongruent,GREEN,yellow,f,distractors/2.wav,,,,,0,3,3,3,0,18,18,20,1417.1288017000002,1419.1284587,f,1,0.8343284000002313,P5,2023-06-09_11h26.02.781,StroopExp,2022.2.5,59.973539674277966,
b4,stroop_trial_condtions/b3.xlsx,0.01763447907037896,1,incongruent,RED,blue,d,distractors/3.wav,,,,,0,3,3,3,0,19,19,31,1421.6107401999998,1423.6103542,d,1,1.2463409999995747,P5,2023-06-09_11h26.02.781,StroopExp,2022.2.5,59.973539674277966,
b4,stroop_trial_condtions/b3.xlsx,0.7591509381967968,1,congruent,YELLOW,yellow,f,distractors/3.wav,,,,,0,3,3,3,0,20,20,36,1426.1430448,,f,1,0.7383156999999301,P5,2023-06-09_11h26.02.781,StroopExp,2022.2.5,59.973539674277966,
b4,stroop_trial_condtions/b3.xlsx,0.7943148249806823,1,incongruent,BLUE,red,a,distractors/1.wav,,,,,0,3,3,3,0,21,21,30,1430.6414857,1432.6403040999999,a,1,0.8663557999998375,P5,2023-06-09_11h26.02.781,StroopExp,2022.2.5,59.973539674277966,
b4,stroop_trial_condtions/b3.xlsx,0.22157820962509556,1,incongruent,RED,green,s,distractors/4.wav,,,,,0,3,3,3,0,22,22,26,1435.1562294,1437.1564125999998,s,1,1.4351968999999372,P5,2023-06-09_11h26.02.781,StroopExp,2022.2.5,59.973539674277966,
b4,stroop_trial_condtions/b3.xlsx,0.7415483131081879,1,congruent,YELLOW,yellow,f,distractors/1.wav,,,,,0,3,3,3,0,23,23,22,1439.6382290000001,1441.6376056999998,f,1,0.7547725000003993,P5,2023-06-09_11h26.02.781,StroopExp,2022.2.5,59.973539674277966,
b4,stroop_trial_condtions/b3.xlsx,0.4699973194550694,1,incongruent,YELLOW,red,a,distractors/2.wav,,,,,0,3,3,3,0,24,24,34,1444.1534993,1446.1528202,a,1,0.8193145000000186,P5,2023-06-09_11h26.02.781,StroopExp,2022.2.5,59.973539674277966,
b4,stroop_trial_condtions/b3.xlsx,0.4220278048678988,1,incongruent,YELLOW,green,s,distractors/2.wav,,,,,0,3,3,3,0,25,25,33,1448.6518142,1450.6512895,s,1,1.123125799999798,P5,2023-06-09_11h26.02.781,StroopExp,2022.2.5,59.973539674277966,
b4,stroop_trial_condtions/b3.xlsx,0.21782885511366679,1,incongruent,GREEN,blue,d,distractors/1.wav,,,,,0,3,3,3,0,26,26,44,1453.1505363,1455.1505774000002,d,1,1.1841033000000607,P5,2023-06-09_11h26.02.781,StroopExp,2022.2.5,59.973539674277966,
b4,stroop_trial_condtions/b3.xlsx,0.0557810844842791,1,incongruent,RED,yellow,f,distractors/4.wav,,,,,0,3,3,3,0,27,27,43,1457.6343259,1459.6344450000001,f,1,0.9995245000000068,P5,2023-06-09_11h26.02.781,StroopExp,2022.2.5,59.973539674277966,
b4,stroop_trial_condtions/b3.xlsx,0.3048901609321858,1,incongruent,BLUE,green,s,distractors/1.wav,,,,,0,3,3,3,0,28,28,21,1462.1177056000001,1464.1299881999998,s,1,1.1489865999997164,P5,2023-06-09_11h26.02.781,StroopExp,2022.2.5,59.973539674277966,
b4,stroop_trial_condtions/b3.xlsx,0.8711656555587126,1,congruent,YELLOW,yellow,f,distractors/1.wav,,,,,0,3,3,3,0,29,29,11,1466.6289364,1468.6283543999998,f,1,1.824239199999738,P5,2023-06-09_11h26.02.781,StroopExp,2022.2.5,59.973539674277966,
b4,stroop_trial_condtions/b3.xlsx,0.010072895586636488,1,congruent,RED,red,a,distractors/4.wav,,,,,0,3,3,3,0,30,30,37,1471.1275282000001,1473.1267428,a,1,0.7293139000003066,P5,2023-06-09_11h26.02.781,StroopExp,2022.2.5,59.973539674277966,
b4,stroop_trial_condtions/b3.xlsx,0.8010105832360127,1,incongruent,RED,blue,d,distractors/2.wav,,,,,0,3,3,3,0,31,31,13,1475.6092737,1477.6086802,d,1,1.0954811000001428,P5,2023-06-09_11h26.02.781,StroopExp,2022.2.5,59.973539674277966,
b4,stroop_trial_condtions/b3.xlsx,0.5078031949822321,1,congruent,YELLOW,yellow,f,distractors/3.wav,,,,,0,3,3,3,0,32,32,45,1480.1079329,1482.1073335,f,1,0.984856900000068,P5,2023-06-09_11h26.02.781,StroopExp,2022.2.5,59.973539674277966,
b4,stroop_trial_condtions/b3.xlsx,0.5858254357624116,1,incongruent,YELLOW,blue,d,distractors/2.wav,,,,,0,3,3,3,0,33,33,12,1484.6060133,1486.6056680000002,d,1,1.369261099999676,P5,2023-06-09_11h26.02.781,StroopExp,2022.2.5,59.973539674277966,
b4,stroop_trial_condtions/b3.xlsx,0.610353600261409,1,incongruent,RED,green,s,distractors/2.wav,,,,,0,3,3,3,0,34,34,16,1489.1382436,1491.1382205999998,s,1,0.7526428999999553,P5,2023-06-09_11h26.02.781,StroopExp,2022.2.5,59.973539674277966,
b4,stroop_trial_condtions/b3.xlsx,0.8543495536120658,1,congruent,YELLOW,yellow,f,distractors/3.wav,,,,,0,3,3,3,0,35,35,27,1493.6362350999998,1495.6358249,f,1,0.9407507999999325,P5,2023-06-09_11h26.02.781,StroopExp,2022.2.5,59.973539674277966,
b4,stroop_trial_condtions/b3.xlsx,0.5215658873690101,1,incongruent,YELLOW,blue,d,distractors/3.wav,,,,,0,3,3,3,0,36,36,14,1498.135447,1500.1346039999999,d,1,1.1642805999999837,P5,2023-06-09_11h26.02.781,StroopExp,2022.2.5,59.973539674277966,
b4,stroop_trial_condtions/b3.xlsx,0.4256101321124697,1,congruent,BLUE,blue,d,distractors/4.wav,,,,,0,3,3,3,0,37,37,9,1502.6176775,1504.6176928,d,1,0.811112399999729,P5,2023-06-09_11h26.02.781,StroopExp,2022.2.5,59.973539674277966,
b4,stroop_trial_condtions/b3.xlsx,0.5042669091023176,1,congruent,BLUE,blue,d,distractors/2.wav,,,,,0,3,3,3,0,38,38,25,1507.1015294,1509.1016682999998,d,1,0.6452335000003586,P5,2023-06-09_11h26.02.781,StroopExp,2022.2.5,59.973539674277966,
b4,stroop_trial_condtions/b3.xlsx,0.264144016402854,1,congruent,RED,red,a,distractors/2.wav,,,,,0,3,3,3,0,39,39,6,1511.5969374000001,1513.5980482999998,a,1,0.8175141999995503,P5,2023-06-09_11h26.02.781,StroopExp,2022.2.5,59.973539674277966,
b4,stroop_trial_condtions/b3.xlsx,0.5857626834280144,1,congruent,GREEN,green,s,distractors/2.wav,,,,,0,3,3,3,0,40,40,18,1516.1119499000001,1518.1117598,s,1,1.2327323999998043,P5,2023-06-09_11h26.02.781,StroopExp,2022.2.5,59.973539674277966,
b4,stroop_trial_condtions/b3.xlsx,0.6296527572668619,1,incongruent,GREEN,red,a,distractors/4.wav,,,,,0,3,3,3,0,41,41,24,1520.6106834000002,1522.6100514,a,1,0.6681073999998262,P5,2023-06-09_11h26.02.781,StroopExp,2022.2.5,59.973539674277966,
b4,stroop_trial_condtions/b3.xlsx,0.1398429663424724,1,congruent,GREEN,green,s,distractors/2.wav,,,,,0,3,3,3,0,42,42,8,1525.1427837,1527.1428010999998,s,1,0.928269999999884,P5,2023-06-09_11h26.02.781,StroopExp,2022.2.5,59.973539674277966,
b4,stroop_trial_condtions/b3.xlsx,0.8013414949294776,1,incongruent,BLUE,yellow,f,distractors/4.wav,,,,,0,3,3,3,0,43,43,4,1529.6407970999999,1531.6401081999998,f,1,1.0298886000000493,P5,2023-06-09_11h26.02.781,StroopExp,2022.2.5,59.973539674277966,
b4,stroop_trial_condtions/b3.xlsx,0.6771707449380959,1,congruent,GREEN,green,s,distractors/1.wav,,,,,0,3,3,3,0,44,44,5,1534.1395545,1536.1389433,s,1,0.8038320000000567,P5,2023-06-09_11h26.02.781,StroopExp,2022.2.5,59.973539674277966,
b4,stroop_trial_condtions/b3.xlsx,0.3378719033646135,1,incongruent,RED,yellow,f,distractors/4.wav,,,,,0,3,3,3,0,45,45,19,1538.6384257999998,,f,1,1.6804660000002514,P5,2023-06-09_11h26.02.781,StroopExp,2022.2.5,59.973539674277966,
b4,stroop_trial_condtions/b3.xlsx,0.48808766913605917,1,congruent,RED,red,a,distractors/4.wav,,,,,0,3,3,3,0,46,46,38,1543.1533475,1545.1526349,a,1,0.6420363000001998,P5,2023-06-09_11h26.02.781,StroopExp,2022.2.5,59.973539674277966,
b4,stroop_trial_condtions/b3.xlsx,0.5524115762504958,1,incongruent,GREEN,blue,d,distractors/4.wav,,,,,0,3,3,3,0,47,47,15,1547.6517880000001,1549.652243,d,1,1.8837908000000425,P5,2023-06-09_11h26.02.781,StroopExp,2022.2.5,59.973539674277966,
