block_number,location,Index,has_distraction,trial_type,word,color,correct_key,distraction_file_name,practice_trials_4X5.thisRepN,practice_trials_4X5.thisTrialN,practice_trials_4X5.thisN,practice_trials_4X5.thisIndex,blocks.thisRepN,blocks.thisTrialN,blocks.thisN,blocks.thisIndex,trials.thisRepN,trials.thisTrialN,trials.thisN,trials.thisIndex,key_stroop.started,key_stroop.keys,key_stroop.corr,key_stroop.rt,key_stroop.stopped,participant,date,expName,psychopyVersion,frameRate,
b1,stroop_trial_condtions/b1.xlsx,0.15319618406080382,0,incongruent,YELLOW,green,s,distractors/silence.wav,,,,,0,0,0,0,0,0,0,31,229.31322189999992,s,1,1.1803566000016872,,P3,2023-06-08_15h54.44.730,StroopExp,2022.2.5,59.97501440900438,
b1,stroop_trial_condtions/b1.xlsx,0.4930182611236916,0,congruent,BLUE,blue,d,distractors/silence.wav,,,,,0,0,0,0,0,1,1,7,233.82779179999852,d,1,1.0395521999998891,235.82724899999812,P3,2023-06-08_15h54.44.730,StroopExp,2022.2.5,59.97501440900438,
b1,stroop_trial_condtions/b1.xlsx,0.5794916014066622,0,congruent,RED,red,a,distractors/silence.wav,,,,,0,0,0,0,0,2,2,47,238.3433002999991,a,1,0.8702252000002773,240.34297929999957,P3,2023-06-08_15h54.44.730,StroopExp,2022.2.5,59.97501440900438,
b1,stroop_trial_condtions/b1.xlsx,0.019360950480176498,0,incongruent,YELLOW,green,s,distractors/silence.wav,,,,,0,0,0,0,0,3,3,2,242.84218490000057,s,1,1.1688351000011608,244.840931499999,P3,2023-06-08_15h54.44.730,StroopExp,2022.2.5,59.97501440900438,
b1,stroop_trial_condtions/b1.xlsx,0.45159790316989123,0,congruent,BLUE,blue,d,distractors/silence.wav,,,,,0,0,0,0,0,4,4,22,247.33997810000074,d,1,0.9427563999997801,249.33950829999958,P3,2023-06-08_15h54.44.730,StroopExp,2022.2.5,59.97501440900438,
b1,stroop_trial_condtions/b1.xlsx,0.5831965246907577,0,congruent,BLUE,blue,d,distractors/silence.wav,,,,,0,0,0,0,0,5,5,44,251.8552684999995,d,1,0.9830935000027239,253.85541060000105,P3,2023-06-08_15h54.44.730,StroopExp,2022.2.5,59.97501440900438,
b1,stroop_trial_condtions/b1.xlsx,0.7296842337577286,0,incongruent,BLUE,red,a,distractors/silence.wav,,,,,0,0,0,0,0,6,6,29,256.3386963000012,a,1,1.0127190999992308,258.33883250000144,P3,2023-06-08_15h54.44.730,StroopExp,2022.2.5,59.97501440900438,
b1,stroop_trial_condtions/b1.xlsx,0.19133216126723684,0,congruent,GREEN,green,s,distractors/silence.wav,,,,,0,0,0,0,0,7,7,43,260.8355057000008,s,1,1.3372680000029504,262.8348284999993,P3,2023-06-08_15h54.44.730,StroopExp,2022.2.5,59.97501440900438,
b1,stroop_trial_condtions/b1.xlsx,0.25693203245358776,0,congruent,BLUE,blue,d,distractors/silence.wav,,,,,0,0,0,0,0,8,8,30,265.350512099998,d,1,1.3871407999977237,267.35010279999915,P3,2023-06-08_15h54.44.730,StroopExp,2022.2.5,59.97501440900438,
b1,stroop_trial_condtions/b1.xlsx,0.35032813659302076,0,congruent,GREEN,green,s,distractors/silence.wav,,,,,0,0,0,0,0,9,9,20,269.86549920000107,s,1,1.521849499997188,271.8650971999996,P3,2023-06-08_15h54.44.730,StroopExp,2022.2.5,59.97501440900438,
b1,stroop_trial_condtions/b1.xlsx,0.2518748957010212,0,incongruent,GREEN,blue,d,distractors/silence.wav,,,,,0,0,0,0,0,10,10,37,274.3643198999998,d,1,1.6291693000021041,276.3633136999997,P3,2023-06-08_15h54.44.730,StroopExp,2022.2.5,59.97501440900438,
b1,stroop_trial_condtions/b1.xlsx,0.9718580164963233,0,congruent,RED,red,a,distractors/silence.wav,,,,,0,0,0,0,0,11,11,0,278.87953189999826,a,1,0.9357579999996233,,P3,2023-06-08_15h54.44.730,StroopExp,2022.2.5,59.97501440900438,
b1,stroop_trial_condtions/b1.xlsx,0.004767373540519926,0,incongruent,RED,green,s,distractors/silence.wav,,,,,0,0,0,0,0,12,12,14,283.3942973000012,s,1,1.4450316000002204,285.3937789999982,P3,2023-06-08_15h54.44.730,StroopExp,2022.2.5,59.97501440900438,
b1,stroop_trial_condtions/b1.xlsx,0.674408475762876,0,incongruent,BLUE,yellow,f,distractors/silence.wav,,,,,0,0,0,0,0,13,13,26,287.89330490000066,f,1,1.0827958000008948,,P3,2023-06-08_15h54.44.730,StroopExp,2022.2.5,59.97501440900438,
b1,stroop_trial_condtions/b1.xlsx,0.5480879446861618,0,congruent,YELLOW,yellow,f,distractors/silence.wav,,,,,0,0,0,0,0,14,14,32,292.40815870000006,f,1,1.1313282999981311,294.40722639999876,P3,2023-06-08_15h54.44.730,StroopExp,2022.2.5,59.97501440900438,
b1,stroop_trial_condtions/b1.xlsx,0.5430706368691302,0,incongruent,BLUE,yellow,f,distractors/silence.wav,,,,,0,0,0,0,0,15,15,1,296.9233839000008,f,1,1.0900829999991402,,P3,2023-06-08_15h54.44.730,StroopExp,2022.2.5,59.97501440900438,
b1,stroop_trial_condtions/b1.xlsx,0.870406961301538,0,congruent,YELLOW,yellow,f,distractors/silence.wav,,,,,0,0,0,0,0,16,16,11,301.4230759999991,f,1,0.9538757000009355,303.422726599998,P3,2023-06-08_15h54.44.730,StroopExp,2022.2.5,59.97501440900438,
b1,stroop_trial_condtions/b1.xlsx,0.9396621068767484,0,congruent,RED,red,a,distractors/silence.wav,,,,,0,0,0,0,0,17,17,21,305.90626300000076,a,1,0.9170852999995986,307.9059195000009,P3,2023-06-08_15h54.44.730,StroopExp,2022.2.5,59.97501440900438,
b1,stroop_trial_condtions/b1.xlsx,0.6252124205445847,0,congruent,GREEN,green,s,distractors/silence.wav,,,,,0,0,0,0,0,18,18,24,310.4021326000002,s,1,1.4712518000014825,312.40109630000006,P3,2023-06-08_15h54.44.730,StroopExp,2022.2.5,59.97501440900438,
b1,stroop_trial_condtions/b1.xlsx,0.9350978434171133,0,incongruent,RED,blue,d,distractors/silence.wav,,,,,0,0,0,0,0,19,19,17,314.9173230000015,a,0,1.15790719999859,,P3,2023-06-08_15h54.44.730,StroopExp,2022.2.5,59.97501440900438,
b1,stroop_trial_condtions/b1.xlsx,0.07711709789910381,0,incongruent,BLUE,red,a,distractors/silence.wav,,,,,0,0,0,0,0,20,20,35,319.4323822000006,a,1,1.3787644000003638,,P3,2023-06-08_15h54.44.730,StroopExp,2022.2.5,59.97501440900438,
b1,stroop_trial_condtions/b1.xlsx,0.832802100155878,0,incongruent,GREEN,red,a,distractors/silence.wav,,,,,0,0,0,0,0,21,21,41,323.94831239999985,a,1,1.6542903000008664,,P3,2023-06-08_15h54.44.730,StroopExp,2022.2.5,59.97501440900438,
b1,stroop_trial_condtions/b1.xlsx,0.7445649241064577,0,congruent,GREEN,green,s,distractors/silence.wav,,,,,0,0,0,0,0,22,22,42,328.4631020000015,None,0,,,P3,2023-06-08_15h54.44.730,StroopExp,2022.2.5,59.97501440900438,
b1,stroop_trial_condtions/b1.xlsx,0.6478411009005055,0,incongruent,GREEN,red,a,distractors/silence.wav,,,,,0,0,0,0,0,23,23,6,332.97785759999897,a,1,1.3665972999988298,,P3,2023-06-08_15h54.44.730,StroopExp,2022.2.5,59.97501440900438,
b1,stroop_trial_condtions/b1.xlsx,0.23739699734220088,0,incongruent,GREEN,blue,d,distractors/silence.wav,,,,,0,0,0,0,0,24,24,18,337.4927306999998,d,1,1.373828700001468,339.4926286000009,P3,2023-06-08_15h54.44.730,StroopExp,2022.2.5,59.97501440900438,
b1,stroop_trial_condtions/b1.xlsx,0.680507855371767,0,incongruent,GREEN,yellow,f,distractors/silence.wav,,,,,0,0,0,0,0,25,25,33,341.99104779999834,f,1,1.0381104000007326,343.9913129000015,P3,2023-06-08_15h54.44.730,StroopExp,2022.2.5,59.97501440900438,
b1,stroop_trial_condtions/b1.xlsx,0.0729145768917061,0,congruent,BLUE,blue,d,distractors/silence.wav,,,,,0,0,0,0,0,26,26,3,346.50638320000144,d,1,1.5809117999997397,348.50680640000064,P3,2023-06-08_15h54.44.730,StroopExp,2022.2.5,59.97501440900438,
b1,stroop_trial_condtions/b1.xlsx,0.7336815417486652,0,incongruent,BLUE,green,s,distractors/silence.wav,,,,,0,0,0,0,0,27,27,15,351.0068448999991,s,1,1.4505977000007988,353.0081128999991,P3,2023-06-08_15h54.44.730,StroopExp,2022.2.5,59.97501440900438,
b1,stroop_trial_condtions/b1.xlsx,0.4017822535991459,0,incongruent,YELLOW,red,a,distractors/silence.wav,,,,,0,0,0,0,0,28,28,12,355.5067889999991,a,1,1.2805563000001712,,P3,2023-06-08_15h54.44.730,StroopExp,2022.2.5,59.97501440900438,
b1,stroop_trial_condtions/b1.xlsx,0.41931537120590046,0,congruent,RED,red,a,distractors/silence.wav,,,,,0,0,0,0,0,29,29,38,360.01819049999904,a,1,1.1428058999990753,362.0176724999983,P3,2023-06-08_15h54.44.730,StroopExp,2022.2.5,59.97501440900438,
b1,stroop_trial_condtions/b1.xlsx,0.922953448054004,0,congruent,RED,red,a,distractors/silence.wav,,,,,0,0,0,0,0,30,30,40,364.53304650000064,a,1,0.9594281000026967,366.5332793999987,P3,2023-06-08_15h54.44.730,StroopExp,2022.2.5,59.97501440900438,
b1,stroop_trial_condtions/b1.xlsx,0.5716507137496009,0,incongruent,YELLOW,red,a,distractors/silence.wav,,,,,0,0,0,0,0,31,31,5,369.0319224999985,a,1,1.016167800000403,371.0315813999987,P3,2023-06-08_15h54.44.730,StroopExp,2022.2.5,59.97501440900438,
b1,stroop_trial_condtions/b1.xlsx,0.9366695365255577,0,incongruent,GREEN,yellow,f,distractors/silence.wav,,,,,0,0,0,0,0,32,32,34,373.5299288999995,f,1,0.9905414999993809,375.52971980000075,P3,2023-06-08_15h54.44.730,StroopExp,2022.2.5,59.97501440900438,
b1,stroop_trial_condtions/b1.xlsx,0.8708935669205526,0,congruent,RED,red,a,distractors/silence.wav,,,,,0,0,0,0,0,33,33,9,378.0287262999991,a,1,0.8105299999988347,380.0284936999997,P3,2023-06-08_15h54.44.730,StroopExp,2022.2.5,59.97501440900438,
b1,stroop_trial_condtions/b1.xlsx,0.8969522657404946,0,incongruent,YELLOW,blue,d,distractors/silence.wav,,,,,0,0,0,0,0,34,34,25,382.5438243999997,d,1,1.1937924000012572,384.5437278999998,P3,2023-06-08_15h54.44.730,StroopExp,2022.2.5,59.97501440900438,
b1,stroop_trial_condtions/b1.xlsx,0.9765691810900071,0,incongruent,YELLOW,blue,d,distractors/silence.wav,,,,,0,0,0,0,0,35,35,39,387.05932250000114,d,1,1.024062500000582,389.05841240000154,P3,2023-06-08_15h54.44.730,StroopExp,2022.2.5,59.97501440900438,
b1,stroop_trial_condtions/b1.xlsx,0.7089760381977726,0,congruent,GREEN,green,s,distractors/silence.wav,,,,,0,0,0,0,0,36,36,8,391.57467610000094,s,1,1.4717428000003565,,P3,2023-06-08_15h54.44.730,StroopExp,2022.2.5,59.97501440900438,
b1,stroop_trial_condtions/b1.xlsx,0.24919007739364696,0,congruent,YELLOW,yellow,f,distractors/silence.wav,,,,,0,0,0,0,0,37,37,16,396.0737525000004,f,1,1.41140280000036,398.0738964000011,P3,2023-06-08_15h54.44.730,StroopExp,2022.2.5,59.97501440900438,
b1,stroop_trial_condtions/b1.xlsx,0.5429940223524143,0,congruent,YELLOW,yellow,f,distractors/silence.wav,,,,,0,0,0,0,0,38,38,28,400.5572042999993,f,1,0.974011000002065,402.5538678999983,P3,2023-06-08_15h54.44.730,StroopExp,2022.2.5,59.97501440900438,
b1,stroop_trial_condtions/b1.xlsx,0.6671969061834688,0,incongruent,RED,green,s,distractors/silence.wav,,,,,0,0,0,0,0,39,39,36,405.0696820999983,s,1,1.8007064000012178,407.06945579999956,P3,2023-06-08_15h54.44.730,StroopExp,2022.2.5,59.97501440900438,
b1,stroop_trial_condtions/b1.xlsx,0.8309483305278348,0,incongruent,BLUE,green,s,distractors/silence.wav,,,,,0,0,0,0,0,40,40,46,409.56823409999924,s,1,1.7232784000007086,411.5674947000007,P3,2023-06-08_15h54.44.730,StroopExp,2022.2.5,59.97501440900438,
b1,stroop_trial_condtions/b1.xlsx,0.6604351330374253,0,congruent,GREEN,green,s,distractors/silence.wav,,,,,0,0,0,0,0,41,41,4,414.0835155999994,s,1,0.8663507000019308,416.0828352999997,P3,2023-06-08_15h54.44.730,StroopExp,2022.2.5,59.97501440900438,
b1,stroop_trial_condtions/b1.xlsx,0.19939336354685822,0,congruent,YELLOW,yellow,f,distractors/silence.wav,,,,,0,0,0,0,0,42,42,23,418.5816202999995,f,1,1.1854929000000993,420.58093069999813,P3,2023-06-08_15h54.44.730,StroopExp,2022.2.5,59.97501440900438,
b1,stroop_trial_condtions/b1.xlsx,0.9836363330757953,0,incongruent,RED,yellow,f,distractors/silence.wav,,,,,0,0,0,0,0,43,43,10,423.08006340000065,f,1,1.03478990000076,425.07965369999874,P3,2023-06-08_15h54.44.730,StroopExp,2022.2.5,59.97501440900438,
b1,stroop_trial_condtions/b1.xlsx,0.6869684900918854,0,congruent,YELLOW,yellow,f,distractors/silence.wav,,,,,0,0,0,0,0,44,44,45,427.57875680000143,f,1,0.8284784999996191,429.5783597000009,P3,2023-06-08_15h54.44.730,StroopExp,2022.2.5,59.97501440900438,
b1,stroop_trial_condtions/b1.xlsx,0.027168618358859753,0,incongruent,RED,yellow,f,distractors/silence.wav,,,,,0,0,0,0,0,45,45,27,432.0938763999984,f,1,0.8814589000030537,434.09291590000066,P3,2023-06-08_15h54.44.730,StroopExp,2022.2.5,59.97501440900438,
b1,stroop_trial_condtions/b1.xlsx,0.9769421455207146,0,congruent,BLUE,blue,d,distractors/silence.wav,,,,,0,0,0,0,0,46,46,13,436.608888499999,s,0,1.3506014999984473,438.6082017000008,P3,2023-06-08_15h54.44.730,StroopExp,2022.2.5,59.97501440900438,
b1,stroop_trial_condtions/b1.xlsx,0.632437180452533,0,incongruent,RED,blue,d,distractors/silence.wav,,,,,0,0,0,0,0,47,47,19,441.1241532999993,s,0,0.9873251999997592,443.1243785000006,P3,2023-06-08_15h54.44.730,StroopExp,2022.2.5,59.97501440900438,
b2,stroop_trial_condtions/b2.xlsx,0.09088957165746492,1,congruent,RED,red,a,distractors/3.wav,,,,,0,1,1,1,0,0,0,41,531.4099916999985,a,1,0.9187700000002224,533.409584699999,P3,2023-06-08_15h54.44.730,StroopExp,2022.2.5,59.97501440900438,
b2,stroop_trial_condtions/b2.xlsx,0.23156741124673452,1,congruent,GREEN,green,s,distractors/4.wav,,,,,0,1,1,1,0,1,1,8,535.925417800001,s,1,1.2556173000011768,537.9420763999988,P3,2023-06-08_15h54.44.730,StroopExp,2022.2.5,59.97501440900438,
b2,stroop_trial_condtions/b2.xlsx,0.9734714245974094,1,congruent,BLUE,blue,d,distractors/2.wav,,,,,0,1,1,1,0,2,2,1,540.4254242999996,d,1,1.011322400001518,542.4255177999985,P3,2023-06-08_15h54.44.730,StroopExp,2022.2.5,59.97501440900438,
b2,stroop_trial_condtions/b2.xlsx,0.9668213022564922,1,congruent,BLUE,blue,d,distractors/2.wav,,,,,0,1,1,1,0,3,3,21,544.9223028999986,d,1,0.8783153000003949,,P3,2023-06-08_15h54.44.730,StroopExp,2022.2.5,59.97501440900438,
b2,stroop_trial_condtions/b2.xlsx,0.14441839566692105,1,congruent,GREEN,green,s,distractors/1.wav,,,,,0,1,1,1,0,4,4,43,549.4372011000014,s,1,1.1591977000025508,551.4363040999997,P3,2023-06-08_15h54.44.730,StroopExp,2022.2.5,59.97501440900438,
b2,stroop_trial_condtions/b2.xlsx,0.5007983240031381,1,incongruent,BLUE,green,s,distractors/1.wav,,,,,0,1,1,1,0,5,5,18,553.9364679999999,s,1,0.9682008000017959,555.9520034999987,P3,2023-06-08_15h54.44.730,StroopExp,2022.2.5,59.97501440900438,
b2,stroop_trial_condtions/b2.xlsx,0.06730533561031782,1,incongruent,BLUE,yellow,f,distractors/3.wav,,,,,0,1,1,1,0,6,6,26,558.4508190999986,f,1,1.0737740000004123,560.4505710000012,P3,2023-06-08_15h54.44.730,StroopExp,2022.2.5,59.97501440900438,
b2,stroop_trial_condtions/b2.xlsx,0.041649080139953165,1,incongruent,RED,yellow,f,distractors/4.wav,,,,,0,1,1,1,0,7,7,2,562.9658552000001,f,1,0.9907535000020289,564.9651139999987,P3,2023-06-08_15h54.44.730,StroopExp,2022.2.5,59.97501440900438,
b2,stroop_trial_condtions/b2.xlsx,0.255397179890806,1,congruent,YELLOW,yellow,f,distractors/1.wav,,,,,0,1,1,1,0,8,8,45,567.4808900999997,f,1,1.2377645000015036,569.4801549000003,P3,2023-06-08_15h54.44.730,StroopExp,2022.2.5,59.97501440900438,
b2,stroop_trial_condtions/b2.xlsx,0.7676806241710538,1,congruent,BLUE,blue,d,distractors/3.wav,,,,,0,1,1,1,0,9,9,32,571.9794137999997,d,1,1.0878851000015857,573.9789454999991,P3,2023-06-08_15h54.44.730,StroopExp,2022.2.5,59.97501440900438,
b2,stroop_trial_condtions/b2.xlsx,0.3293331866279865,1,incongruent,YELLOW,green,s,distractors/2.wav,,,,,0,1,1,1,0,10,10,6,576.4777036000014,s,1,1.2450006999970356,578.4774164999981,P3,2023-06-08_15h54.44.730,StroopExp,2022.2.5,59.97501440900438,
b2,stroop_trial_condtions/b2.xlsx,0.8140627153069117,1,congruent,BLUE,blue,d,distractors/2.wav,,,,,0,1,1,1,0,11,11,36,580.9932208999999,d,1,0.9714332000003196,582.9925364999981,P3,2023-06-08_15h54.44.730,StroopExp,2022.2.5,59.97501440900438,
b2,stroop_trial_condtions/b2.xlsx,0.33083395410092575,1,incongruent,BLUE,yellow,f,distractors/4.wav,,,,,0,1,1,1,0,12,12,5,585.4761590999988,f,1,0.950340800001868,587.476064399998,P3,2023-06-08_15h54.44.730,StroopExp,2022.2.5,59.97501440900438,
b2,stroop_trial_condtions/b2.xlsx,0.4889714654954811,1,incongruent,BLUE,red,a,distractors/4.wav,,,,,0,1,1,1,0,13,13,29,589.9593741999997,a,1,0.9837636999982351,591.9775475999995,P3,2023-06-08_15h54.44.730,StroopExp,2022.2.5,59.97501440900438,
b2,stroop_trial_condtions/b2.xlsx,0.828978615866739,1,incongruent,RED,yellow,f,distractors/4.wav,,,,,0,1,1,1,0,14,14,31,594.4717725999981,f,1,0.928934699997626,596.4714118000011,P3,2023-06-08_15h54.44.730,StroopExp,2022.2.5,59.97501440900438,
b2,stroop_trial_condtions/b2.xlsx,0.08769688168855672,1,incongruent,RED,green,s,distractors/3.wav,,,,,0,1,1,1,0,15,15,47,598.9872051999992,s,1,1.3097739000004367,600.9863207999988,P3,2023-06-08_15h54.44.730,StroopExp,2022.2.5,59.97501440900438,
b2,stroop_trial_condtions/b2.xlsx,0.21174317193635972,1,congruent,YELLOW,yellow,f,distractors/2.wav,,,,,0,1,1,1,0,16,16,38,603.5023509999992,f,1,0.936421500002325,605.5013298999984,P3,2023-06-08_15h54.44.730,StroopExp,2022.2.5,59.97501440900438,
b2,stroop_trial_condtions/b2.xlsx,0.2950231286066718,1,incongruent,BLUE,red,a,distractors/1.wav,,,,,0,1,1,1,0,17,17,37,608.0176064000007,a,1,1.0249936000000162,,P3,2023-06-08_15h54.44.730,StroopExp,2022.2.5,59.97501440900438,
b2,stroop_trial_condtions/b2.xlsx,0.8135146664790234,1,incongruent,GREEN,red,a,distractors/3.wav,,,,,0,1,1,1,0,18,18,40,612.5318716000002,a,1,0.8944889000013063,614.5315267000005,P3,2023-06-08_15h54.44.730,StroopExp,2022.2.5,59.97501440900438,
b2,stroop_trial_condtions/b2.xlsx,0.3400635619663932,1,congruent,YELLOW,yellow,f,distractors/3.wav,,,,,0,1,1,1,0,19,19,12,617.0309858,f,1,0.9797312999980932,619.0299196000014,P3,2023-06-08_15h54.44.730,StroopExp,2022.2.5,59.97501440900438,
b2,stroop_trial_condtions/b2.xlsx,0.5030786504893666,1,incongruent,YELLOW,green,s,distractors/4.wav,,,,,0,1,1,1,0,20,20,19,621.5459628999997,s,1,1.170185599999968,623.5454731999998,P3,2023-06-08_15h54.44.730,StroopExp,2022.2.5,59.97501440900438,
b2,stroop_trial_condtions/b2.xlsx,0.5317591854488619,1,congruent,YELLOW,yellow,f,distractors/2.wav,,,,,0,1,1,1,0,21,21,34,626.0443344999985,f,1,0.9342273000002024,628.0437429000012,P3,2023-06-08_15h54.44.730,StroopExp,2022.2.5,59.97501440900438,
b2,stroop_trial_condtions/b2.xlsx,0.4249079497252247,1,congruent,GREEN,green,s,distractors/2.wav,,,,,0,1,1,1,0,22,22,4,630.559945099998,s,1,1.028536300000269,632.5599726,P3,2023-06-08_15h54.44.730,StroopExp,2022.2.5,59.97501440900438,
b2,stroop_trial_condtions/b2.xlsx,0.7962676920675457,1,incongruent,RED,blue,d,distractors/4.wav,,,,,0,1,1,1,0,23,23,46,635.0598179000008,d,1,1.2908107000002929,637.060953199998,P3,2023-06-08_15h54.44.730,StroopExp,2022.2.5,59.97501440900438,
b2,stroop_trial_condtions/b2.xlsx,0.19636652195914828,1,incongruent,GREEN,red,a,distractors/1.wav,,,,,0,1,1,1,0,24,24,9,639.5567004000004,a,1,1.5165861999994377,641.5558683999989,P3,2023-06-08_15h54.44.730,StroopExp,2022.2.5,59.97501440900438,
b2,stroop_trial_condtions/b2.xlsx,0.10839814050721508,1,incongruent,RED,green,s,distractors/1.wav,,,,,0,1,1,1,0,25,25,14,644.0549045000007,s,1,1.1500252000005275,646.0544166,P3,2023-06-08_15h54.44.730,StroopExp,2022.2.5,59.97501440900438,
b2,stroop_trial_condtions/b2.xlsx,0.8857086195357853,1,congruent,BLUE,blue,d,distractors/1.wav,,,,,0,1,1,1,0,26,26,16,648.5533603000003,d,1,1.4064020000005257,650.5527051999998,P3,2023-06-08_15h54.44.730,StroopExp,2022.2.5,59.97501440900438,
b2,stroop_trial_condtions/b2.xlsx,0.4832744640468789,1,congruent,YELLOW,yellow,f,distractors/1.wav,,,,,0,1,1,1,0,27,27,24,653.0684652999989,f,1,1.0555521999995108,655.0679649999984,P3,2023-06-08_15h54.44.730,StroopExp,2022.2.5,59.97501440900438,
b2,stroop_trial_condtions/b2.xlsx,0.3614790911510004,1,congruent,GREEN,green,s,distractors/1.wav,,,,,0,1,1,1,0,28,28,17,657.5668450000012,s,1,0.8890363999998954,659.5656345999996,P3,2023-06-08_15h54.44.730,StroopExp,2022.2.5,59.97501440900438,
b2,stroop_trial_condtions/b2.xlsx,0.7131950070563138,1,congruent,GREEN,green,s,distractors/2.wav,,,,,0,1,1,1,0,29,29,10,662.0657257999992,s,1,1.040695699997741,664.0812407000012,P3,2023-06-08_15h54.44.730,StroopExp,2022.2.5,59.97501440900438,
b2,stroop_trial_condtions/b2.xlsx,0.8384300714767312,1,congruent,RED,red,a,distractors/1.wav,,,,,0,1,1,1,0,30,30,25,666.5805179999988,a,1,0.8875677999967593,668.5799616000004,P3,2023-06-08_15h54.44.730,StroopExp,2022.2.5,59.97501440900438,
b2,stroop_trial_condtions/b2.xlsx,0.06502382441476195,1,incongruent,GREEN,yellow,f,distractors/1.wav,,,,,0,1,1,1,0,31,31,7,671.0791432000005,f,1,1.0111885999976948,,P3,2023-06-08_15h54.44.730,StroopExp,2022.2.5,59.97501440900438,
b2,stroop_trial_condtions/b2.xlsx,0.16494802758791438,1,congruent,GREEN,green,s,distractors/4.wav,,,,,0,1,1,1,0,32,32,23,675.5943752999992,s,1,1.100035100000241,677.5937715,P3,2023-06-08_15h54.44.730,StroopExp,2022.2.5,59.97501440900438,
b2,stroop_trial_condtions/b2.xlsx,0.10715468186921961,1,incongruent,BLUE,green,s,distractors/3.wav,,,,,0,1,1,1,0,33,33,33,680.0937678000009,s,1,1.1329454999977315,682.093718600001,P3,2023-06-08_15h54.44.730,StroopExp,2022.2.5,59.97501440900438,
b2,stroop_trial_condtions/b2.xlsx,0.4926856322739591,1,congruent,RED,red,a,distractors/4.wav,,,,,0,1,1,1,0,34,34,27,684.5773426000014,a,1,1.714963300000818,686.5908992000004,P3,2023-06-08_15h54.44.730,StroopExp,2022.2.5,59.97501440900438,
b2,stroop_trial_condtions/b2.xlsx,0.03433248455064386,1,incongruent,YELLOW,red,a,distractors/2.wav,,,,,0,1,1,1,0,35,35,13,689.0898258999987,a,1,1.020097500000702,691.088728499999,P3,2023-06-08_15h54.44.730,StroopExp,2022.2.5,59.97501440900438,
b2,stroop_trial_condtions/b2.xlsx,0.011991741755762342,1,congruent,RED,red,a,distractors/4.wav,,,,,0,1,1,1,0,36,36,42,693.5878793999982,a,1,0.8106133000001137,695.5875668000008,P3,2023-06-08_15h54.44.730,StroopExp,2022.2.5,59.97501440900438,
b2,stroop_trial_condtions/b2.xlsx,0.5666506333865139,1,incongruent,GREEN,yellow,f,distractors/3.wav,,,,,0,1,1,1,0,37,37,0,698.0868846999983,f,1,1.1735417999989295,700.0861923999983,P3,2023-06-08_15h54.44.730,StroopExp,2022.2.5,59.97501440900438,
b2,stroop_trial_condtions/b2.xlsx,0.3240706252403076,1,congruent,YELLOW,yellow,f,distractors/3.wav,,,,,0,1,1,1,0,38,38,15,702.6016167999987,f,1,0.964779300000373,704.6010059,P3,2023-06-08_15h54.44.730,StroopExp,2022.2.5,59.97501440900438,
b2,stroop_trial_condtions/b2.xlsx,0.5224761727455313,1,incongruent,RED,blue,d,distractors/1.wav,,,,,0,1,1,1,0,39,39,20,707.1000339999991,s,0,1.4896157000002859,709.0993200999983,P3,2023-06-08_15h54.44.730,StroopExp,2022.2.5,59.97501440900438,
b2,stroop_trial_condtions/b2.xlsx,0.7331852058029119,1,incongruent,GREEN,blue,d,distractors/4.wav,,,,,0,1,1,1,0,40,40,28,711.5990330999994,d,1,1.1475816999991366,713.5979765000011,P3,2023-06-08_15h54.44.730,StroopExp,2022.2.5,59.97501440900438,
b2,stroop_trial_condtions/b2.xlsx,0.6661419533997107,1,congruent,RED,red,a,distractors/2.wav,,,,,0,1,1,1,0,41,41,3,716.1141290000014,a,1,0.8896499000002223,718.1131556,P3,2023-06-08_15h54.44.730,StroopExp,2022.2.5,59.97501440900438,
b2,stroop_trial_condtions/b2.xlsx,0.776926077509408,1,incongruent,GREEN,blue,d,distractors/4.wav,,,,,0,1,1,1,0,42,42,22,720.6120727999987,d,1,1.3696079000001191,722.6112796000016,P3,2023-06-08_15h54.44.730,StroopExp,2022.2.5,59.97501440900438,
b2,stroop_trial_condtions/b2.xlsx,0.6295899639289376,1,congruent,RED,red,a,distractors/2.wav,,,,,0,1,1,1,0,43,43,11,725.1275533000007,a,1,0.8504251999984263,727.1277570999991,P3,2023-06-08_15h54.44.730,StroopExp,2022.2.5,59.97501440900438,
b2,stroop_trial_condtions/b2.xlsx,0.12819537203794318,1,incongruent,YELLOW,red,a,distractors/3.wav,,,,,0,1,1,1,0,44,44,35,729.6111947999998,a,1,0.9190418999969552,731.6111722999995,P3,2023-06-08_15h54.44.730,StroopExp,2022.2.5,59.97501440900438,
b2,stroop_trial_condtions/b2.xlsx,0.8586137871935915,1,incongruent,YELLOW,blue,d,distractors/3.wav,,,,,0,1,1,1,0,45,45,44,734.1080005000003,f,0,1.1683112000027904,736.1066468999998,P3,2023-06-08_15h54.44.730,StroopExp,2022.2.5,59.97501440900438,
b2,stroop_trial_condtions/b2.xlsx,0.9005674222221599,1,congruent,BLUE,blue,d,distractors/2.wav,,,,,0,1,1,1,0,46,46,30,738.606074700001,d,1,1.1200882000011916,740.6054369999983,P3,2023-06-08_15h54.44.730,StroopExp,2022.2.5,59.97501440900438,
b2,stroop_trial_condtions/b2.xlsx,0.15564368800765982,1,incongruent,YELLOW,blue,d,distractors/3.wav,,,,,0,1,1,1,0,47,47,39,743.1043944999983,d,1,1.120050400000764,745.1036545999996,P3,2023-06-08_15h54.44.730,StroopExp,2022.2.5,59.97501440900438,
b3,stroop_trial_condtions/b1.xlsx,0.004767373540519926,0,incongruent,RED,green,s,distractors/silence.wav,,,,,0,2,2,2,0,0,0,14,814.5467511999996,s,1,1.4128491999981634,816.5467524000014,P3,2023-06-08_15h54.44.730,StroopExp,2022.2.5,59.97501440900438,
b3,stroop_trial_condtions/b1.xlsx,0.7445649241064577,0,congruent,GREEN,green,s,distractors/silence.wav,,,,,0,2,2,2,0,1,1,42,819.0621666000006,s,1,0.9980374000006123,821.0621912999995,P3,2023-06-08_15h54.44.730,StroopExp,2022.2.5,59.97501440900438,
b3,stroop_trial_condtions/b1.xlsx,0.5430706368691302,0,incongruent,BLUE,yellow,f,distractors/silence.wav,,,,,0,2,2,2,0,2,2,1,823.5623833999998,f,1,1.182949899997766,825.5625366999993,P3,2023-06-08_15h54.44.730,StroopExp,2022.2.5,59.97501440900438,
b3,stroop_trial_condtions/b1.xlsx,0.832802100155878,0,incongruent,GREEN,red,a,distractors/silence.wav,,,,,0,2,2,2,0,3,3,41,828.0623348000008,a,1,1.0003508000008878,,P3,2023-06-08_15h54.44.730,StroopExp,2022.2.5,59.97501440900438,
b3,stroop_trial_condtions/b1.xlsx,0.6671969061834688,0,incongruent,RED,green,s,distractors/silence.wav,,,,,0,2,2,2,0,4,4,36,832.5575437000007,s,1,1.2583999000016775,834.5565353999991,P3,2023-06-08_15h54.44.730,StroopExp,2022.2.5,59.97501440900438,
b3,stroop_trial_condtions/b1.xlsx,0.8309483305278348,0,incongruent,BLUE,green,s,distractors/silence.wav,,,,,0,2,2,2,0,5,5,46,837.0724053000013,s,1,1.6252287000024808,839.0717175999998,P3,2023-06-08_15h54.44.730,StroopExp,2022.2.5,59.97501440900438,
b3,stroop_trial_condtions/b1.xlsx,0.9836363330757953,0,incongruent,RED,yellow,f,distractors/silence.wav,,,,,0,2,2,2,0,6,6,10,841.5707796999995,f,1,1.08718349999981,843.5702227000002,P3,2023-06-08_15h54.44.730,StroopExp,2022.2.5,59.97501440900438,
b3,stroop_trial_condtions/b1.xlsx,0.2518748957010212,0,incongruent,GREEN,blue,d,distractors/silence.wav,,,,,0,2,2,2,0,7,7,37,846.0694729999996,d,1,1.3123688999985461,848.0686440999998,P3,2023-06-08_15h54.44.730,StroopExp,2022.2.5,59.97501440900438,
b3,stroop_trial_condtions/b1.xlsx,0.680507855371767,0,incongruent,GREEN,yellow,f,distractors/silence.wav,,,,,0,2,2,2,0,8,8,33,850.5677787999994,f,1,1.2981064999985392,852.5672159999995,P3,2023-06-08_15h54.44.730,StroopExp,2022.2.5,59.97501440900438,
b3,stroop_trial_condtions/b1.xlsx,0.674408475762876,0,incongruent,BLUE,yellow,f,distractors/silence.wav,,,,,0,2,2,2,0,9,9,26,855.067007900001,f,1,0.9910596000008809,,P3,2023-06-08_15h54.44.730,StroopExp,2022.2.5,59.97501440900438,
b3,stroop_trial_condtions/b1.xlsx,0.6478411009005055,0,incongruent,GREEN,red,a,distractors/silence.wav,,,,,0,2,2,2,0,10,10,6,859.5819784999985,a,1,0.9493088000017451,861.5810568999987,P3,2023-06-08_15h54.44.730,StroopExp,2022.2.5,59.97501440900438,
b3,stroop_trial_condtions/b1.xlsx,0.5831965246907577,0,congruent,BLUE,blue,d,distractors/silence.wav,,,,,0,2,2,2,0,11,11,44,864.0805307999981,d,1,1.4293679000002157,,P3,2023-06-08_15h54.44.730,StroopExp,2022.2.5,59.97501440900438,
b3,stroop_trial_condtions/b1.xlsx,0.5429940223524143,0,congruent,YELLOW,yellow,f,distractors/silence.wav,,,,,0,2,2,2,0,12,12,28,868.5800535999988,f,1,1.3966322999986005,870.5794825000012,P3,2023-06-08_15h54.44.730,StroopExp,2022.2.5,59.97501440900438,
b3,stroop_trial_condtions/b1.xlsx,0.19939336354685822,0,congruent,YELLOW,yellow,f,distractors/silence.wav,,,,,0,2,2,2,0,13,13,23,873.0629445999984,f,1,1.1745143000007374,875.0627870999997,P3,2023-06-08_15h54.44.730,StroopExp,2022.2.5,59.97501440900438,
b3,stroop_trial_condtions/b1.xlsx,0.9769421455207146,0,congruent,BLUE,blue,d,distractors/silence.wav,,,,,0,2,2,2,0,14,14,13,877.5587235999992,d,1,1.3340948000004573,879.5586689000011,P3,2023-06-08_15h54.44.730,StroopExp,2022.2.5,59.97501440900438,
b3,stroop_trial_condtions/b1.xlsx,0.25693203245358776,0,congruent,BLUE,blue,d,distractors/silence.wav,,,,,0,2,2,2,0,15,15,30,882.0735710000008,d,1,0.8538466999998491,884.0734478000013,P3,2023-06-08_15h54.44.730,StroopExp,2022.2.5,59.97501440900438,
b3,stroop_trial_condtions/b1.xlsx,0.0729145768917061,0,congruent,BLUE,blue,d,distractors/silence.wav,,,,,0,2,2,2,0,16,16,3,886.5886863000014,d,1,0.9002736999973422,888.5885957999999,P3,2023-06-08_15h54.44.730,StroopExp,2022.2.5,59.97501440900438,
b3,stroop_trial_condtions/b1.xlsx,0.6252124205445847,0,congruent,GREEN,green,s,distractors/silence.wav,,,,,0,2,2,2,0,17,17,24,891.0880007999986,s,1,1.063583999999537,893.0870534999995,P3,2023-06-08_15h54.44.730,StroopExp,2022.2.5,59.97501440900438,
b3,stroop_trial_condtions/b1.xlsx,0.23739699734220088,0,incongruent,GREEN,blue,d,distractors/silence.wav,,,,,0,2,2,2,0,18,18,18,895.6027490000015,d,1,1.2951945999993768,897.6022838999997,P3,2023-06-08_15h54.44.730,StroopExp,2022.2.5,59.97501440900438,
b3,stroop_trial_condtions/b1.xlsx,0.870406961301538,0,congruent,YELLOW,yellow,f,distractors/silence.wav,,,,,0,2,2,2,0,19,19,11,900.1011975000001,f,1,0.9845089000009466,902.1001652999985,P3,2023-06-08_15h54.44.730,StroopExp,2022.2.5,59.97501440900438,
b3,stroop_trial_condtions/b1.xlsx,0.15319618406080382,0,incongruent,YELLOW,green,s,distractors/silence.wav,,,,,0,2,2,2,0,20,20,31,904.616697999998,s,1,1.5472518000024138,,P3,2023-06-08_15h54.44.730,StroopExp,2022.2.5,59.97501440900438,
b3,stroop_trial_condtions/b1.xlsx,0.4930182611236916,0,congruent,BLUE,blue,d,distractors/silence.wav,,,,,0,2,2,2,0,21,21,7,909.1316471999999,d,1,1.1214843999987352,911.1306829999994,P3,2023-06-08_15h54.44.730,StroopExp,2022.2.5,59.97501440900438,
b3,stroop_trial_condtions/b1.xlsx,0.5480879446861618,0,congruent,YELLOW,yellow,f,distractors/silence.wav,,,,,0,2,2,2,0,22,22,32,913.646520899998,f,1,1.6665720000019064,915.6463083999988,P3,2023-06-08_15h54.44.730,StroopExp,2022.2.5,59.97501440900438,
b3,stroop_trial_condtions/b1.xlsx,0.07711709789910381,0,incongruent,BLUE,red,a,distractors/silence.wav,,,,,0,2,2,2,0,23,23,35,918.1299828999981,a,1,1.1935281000005489,920.1301123999983,P3,2023-06-08_15h54.44.730,StroopExp,2022.2.5,59.97501440900438,
b3,stroop_trial_condtions/b1.xlsx,0.7336815417486652,0,incongruent,BLUE,green,s,distractors/silence.wav,,,,,0,2,2,2,0,24,24,15,922.6137287999991,s,1,1.2038837000000058,924.6254915999998,P3,2023-06-08_15h54.44.730,StroopExp,2022.2.5,59.97501440900438,
b3,stroop_trial_condtions/b1.xlsx,0.8708935669205526,0,congruent,RED,red,a,distractors/silence.wav,,,,,0,2,2,2,0,25,25,9,927.1252271000012,a,1,0.9886838999991596,929.1243797999996,P3,2023-06-08_15h54.44.730,StroopExp,2022.2.5,59.97501440900438,
b3,stroop_trial_condtions/b1.xlsx,0.6869684900918854,0,congruent,YELLOW,yellow,f,distractors/silence.wav,,,,,0,2,2,2,0,26,26,45,931.6398843999996,f,1,1.2503557999989425,933.6393949000012,P3,2023-06-08_15h54.44.730,StroopExp,2022.2.5,59.97501440900438,
b3,stroop_trial_condtions/b1.xlsx,0.45159790316989123,0,congruent,BLUE,blue,d,distractors/silence.wav,,,,,0,2,2,2,0,27,27,22,936.1552663000002,d,1,1.5218664000021818,938.1549540000015,P3,2023-06-08_15h54.44.730,StroopExp,2022.2.5,59.97501440900438,
b3,stroop_trial_condtions/b1.xlsx,0.19133216126723684,0,congruent,GREEN,green,s,distractors/silence.wav,,,,,0,2,2,2,0,28,28,43,940.6551080999998,s,1,1.4862638000013249,,P3,2023-06-08_15h54.44.730,StroopExp,2022.2.5,59.97501440900438,
b3,stroop_trial_condtions/b1.xlsx,0.24919007739364696,0,congruent,YELLOW,yellow,f,distractors/silence.wav,,,,,0,2,2,2,0,29,29,16,945.1698957000008,f,1,1.0821628000012424,947.1686193999994,P3,2023-06-08_15h54.44.730,StroopExp,2022.2.5,59.97501440900438,
b3,stroop_trial_condtions/b1.xlsx,0.9366695365255577,0,incongruent,GREEN,yellow,f,distractors/silence.wav,,,,,0,2,2,2,0,30,30,34,949.6674415999987,None,0,,951.668185999999,P3,2023-06-08_15h54.44.730,StroopExp,2022.2.5,59.97501440900438,
b3,stroop_trial_condtions/b1.xlsx,0.9350978434171133,0,incongruent,RED,blue,d,distractors/silence.wav,,,,,0,2,2,2,0,31,31,17,954.1826370999988,d,1,1.7831432000020868,956.1819059000009,P3,2023-06-08_15h54.44.730,StroopExp,2022.2.5,59.97501440900438,
b3,stroop_trial_condtions/b1.xlsx,0.41931537120590046,0,congruent,RED,red,a,distractors/silence.wav,,,,,0,2,2,2,0,32,32,38,958.6811280000002,a,1,0.9265902999977698,960.6807809999991,P3,2023-06-08_15h54.44.730,StroopExp,2022.2.5,59.97501440900438,
b3,stroop_trial_condtions/b1.xlsx,0.5716507137496009,0,incongruent,YELLOW,red,a,distractors/silence.wav,,,,,0,2,2,2,0,33,33,5,963.1808084000004,a,1,0.9827489999988757,965.1807115999982,P3,2023-06-08_15h54.44.730,StroopExp,2022.2.5,59.97501440900438,
b3,stroop_trial_condtions/b1.xlsx,0.9765691810900071,0,incongruent,YELLOW,blue,d,distractors/silence.wav,,,,,0,2,2,2,0,34,34,39,967.6639333999992,d,1,1.4856225999974413,969.6641268999992,P3,2023-06-08_15h54.44.730,StroopExp,2022.2.5,59.97501440900438,
b3,stroop_trial_condtions/b1.xlsx,0.632437180452533,0,incongruent,RED,blue,d,distractors/silence.wav,,,,,0,2,2,2,0,35,35,19,972.1597920999993,d,1,1.1432314999983646,974.1595544999982,P3,2023-06-08_15h54.44.730,StroopExp,2022.2.5,59.97501440900438,
b3,stroop_trial_condtions/b1.xlsx,0.4017822535991459,0,incongruent,YELLOW,red,a,distractors/silence.wav,,,,,0,2,2,2,0,36,36,12,976.6598950000007,a,1,1.0921847999998135,,P3,2023-06-08_15h54.44.730,StroopExp,2022.2.5,59.97501440900438,
b3,stroop_trial_condtions/b1.xlsx,0.5794916014066622,0,congruent,RED,red,a,distractors/silence.wav,,,,,0,2,2,2,0,37,37,47,981.1735999999983,a,1,1.8603703999979189,983.1727997999988,P3,2023-06-08_15h54.44.730,StroopExp,2022.2.5,59.97501440900438,
b3,stroop_trial_condtions/b1.xlsx,0.027168618358859753,0,incongruent,RED,yellow,f,distractors/silence.wav,,,,,0,2,2,2,0,38,38,27,985.6720266999982,f,1,1.587768599998526,987.6712023,P3,2023-06-08_15h54.44.730,StroopExp,2022.2.5,59.97501440900438,
b3,stroop_trial_condtions/b1.xlsx,0.922953448054004,0,congruent,RED,red,a,distractors/silence.wav,,,,,0,2,2,2,0,39,39,40,990.2036800999995,a,1,0.8599241000010807,992.2032288000009,P3,2023-06-08_15h54.44.730,StroopExp,2022.2.5,59.97501440900438,
b3,stroop_trial_condtions/b1.xlsx,0.7089760381977726,0,congruent,GREEN,green,s,distractors/silence.wav,,,,,0,2,2,2,0,40,40,8,994.685738799999,s,1,1.011998499998299,996.6861414000014,P3,2023-06-08_15h54.44.730,StroopExp,2022.2.5,59.97501440900438,
b3,stroop_trial_condtions/b1.xlsx,0.019360950480176498,0,incongruent,YELLOW,green,s,distractors/silence.wav,,,,,0,2,2,2,0,41,41,2,999.2006916999999,s,1,1.2835257000006095,1001.2003225000008,P3,2023-06-08_15h54.44.730,StroopExp,2022.2.5,59.97501440900438,
b3,stroop_trial_condtions/b1.xlsx,0.7296842337577286,0,incongruent,BLUE,red,a,distractors/silence.wav,,,,,0,2,2,2,0,42,42,29,1003.7167622000015,a,1,1.2817369999975199,,P3,2023-06-08_15h54.44.730,StroopExp,2022.2.5,59.97501440900438,
b3,stroop_trial_condtions/b1.xlsx,0.8969522657404946,0,incongruent,YELLOW,blue,d,distractors/silence.wav,,,,,0,2,2,2,0,43,43,25,1008.2310766999981,d,1,1.4333208999996714,1010.2308682000003,P3,2023-06-08_15h54.44.730,StroopExp,2022.2.5,59.97501440900438,
b3,stroop_trial_condtions/b1.xlsx,0.35032813659302076,0,congruent,GREEN,green,s,distractors/silence.wav,,,,,0,2,2,2,0,44,44,20,1012.714987899999,s,1,1.674642899997707,1014.7145621999989,P3,2023-06-08_15h54.44.730,StroopExp,2022.2.5,59.97501440900438,
b3,stroop_trial_condtions/b1.xlsx,0.6604351330374253,0,congruent,GREEN,green,s,distractors/silence.wav,,,,,0,2,2,2,0,45,45,4,1017.1979412000001,s,1,1.3677387999996427,1019.2106639999984,P3,2023-06-08_15h54.44.730,StroopExp,2022.2.5,59.97501440900438,
b3,stroop_trial_condtions/b1.xlsx,0.9718580164963233,0,congruent,RED,red,a,distractors/silence.wav,,,,,0,2,2,2,0,46,46,0,1021.709480999998,a,1,0.8817281000010553,1023.7092263000013,P3,2023-06-08_15h54.44.730,StroopExp,2022.2.5,59.97501440900438,
b3,stroop_trial_condtions/b1.xlsx,0.9396621068767484,0,congruent,RED,red,a,distractors/silence.wav,,,,,0,2,2,2,0,47,47,21,1026.207944400001,a,1,0.8715690999997605,1028.2072627999987,P3,2023-06-08_15h54.44.730,StroopExp,2022.2.5,59.97501440900438,
b4,stroop_trial_condtions/b3.xlsx,0.5042669091023176,1,congruent,BLUE,blue,d,distractors/2.wav,,,,,0,3,3,3,0,0,0,25,1114.0950698999986,d,1,1.2536137999995844,,P3,2023-06-08_15h54.44.730,StroopExp,2022.2.5,59.97501440900438,
b4,stroop_trial_condtions/b3.xlsx,0.21440578937717747,1,incongruent,GREEN,red,a,distractors/4.wav,,,,,0,3,3,3,0,1,1,29,1118.6100432999992,a,1,0.9952384999996866,1120.6093521000003,P3,2023-06-08_15h54.44.730,StroopExp,2022.2.5,59.97501440900438,
b4,stroop_trial_condtions/b3.xlsx,0.21782885511366679,1,incongruent,GREEN,blue,d,distractors/1.wav,,,,,0,3,3,3,0,2,2,44,1123.1085649000015,d,1,1.6872249999978521,1125.1078076000013,P3,2023-06-08_15h54.44.730,StroopExp,2022.2.5,59.97501440900438,
b4,stroop_trial_condtions/b3.xlsx,0.8010105832360127,1,incongruent,RED,blue,d,distractors/2.wav,,,,,0,3,3,3,0,3,3,13,1127.6238138000008,d,1,1.6615330999993603,1129.6235256,P3,2023-06-08_15h54.44.730,StroopExp,2022.2.5,59.97501440900438,
b4,stroop_trial_condtions/b3.xlsx,0.5524115762504958,1,incongruent,GREEN,blue,d,distractors/4.wav,,,,,0,3,3,3,0,4,4,15,1132.1219505000008,d,1,1.349957499998709,1134.1213342999981,P3,2023-06-08_15h54.44.730,StroopExp,2022.2.5,59.97501440900438,
b4,stroop_trial_condtions/b3.xlsx,0.7490878176166669,1,congruent,GREEN,green,s,distractors/2.wav,,,,,0,3,3,3,0,5,5,46,1136.6206934000002,s,1,1.3185567000000447,1138.6198224,P3,2023-06-08_15h54.44.730,StroopExp,2022.2.5,59.97501440900438,
b4,stroop_trial_condtions/b3.xlsx,0.6771707449380959,1,congruent,GREEN,green,s,distractors/1.wav,,,,,0,3,3,3,0,6,6,5,1141.1193714,s,1,1.1778408999998646,1143.1350768999982,P3,2023-06-08_15h54.44.730,StroopExp,2022.2.5,59.97501440900438,
b4,stroop_trial_condtions/b3.xlsx,0.7943148249806823,1,incongruent,BLUE,red,a,distractors/1.wav,,,,,0,3,3,3,0,7,7,30,1145.6174116000002,a,1,1.0941635999988648,1147.6169757999996,P3,2023-06-08_15h54.44.730,StroopExp,2022.2.5,59.97501440900438,
b4,stroop_trial_condtions/b3.xlsx,0.38862864409579867,1,congruent,RED,red,a,distractors/4.wav,,,,,0,3,3,3,0,8,8,17,1150.1325494000012,a,1,0.9924888000023202,1152.1327478999992,P3,2023-06-08_15h54.44.730,StroopExp,2022.2.5,59.97501440900438,
b4,stroop_trial_condtions/b3.xlsx,0.4909534620648366,1,congruent,GREEN,green,s,distractors/4.wav,,,,,0,3,3,3,0,9,9,1,1154.616096400001,s,1,1.0660594000000856,1156.616353999998,P3,2023-06-08_15h54.44.730,StroopExp,2022.2.5,59.97501440900438,
b4,stroop_trial_condtions/b3.xlsx,0.5858254357624116,1,incongruent,YELLOW,blue,d,distractors/2.wav,,,,,0,3,3,3,0,10,10,12,1159.0961386999988,d,1,1.1630487000002177,1161.0955620999994,P3,2023-06-08_15h54.44.730,StroopExp,2022.2.5,59.97501440900438,
b4,stroop_trial_condtions/b3.xlsx,0.10397582984293274,1,incongruent,BLUE,green,s,distractors/1.wav,,,,,0,3,3,3,0,11,11,47,1163.6113086000005,s,1,1.22177400000146,1165.6109762000015,P3,2023-06-08_15h54.44.730,StroopExp,2022.2.5,59.97501440900438,
b4,stroop_trial_condtions/b3.xlsx,0.1398429663424724,1,congruent,GREEN,green,s,distractors/2.wav,,,,,0,3,3,3,0,12,12,8,1168.1096835999997,None,0,,1170.1092586000013,P3,2023-06-08_15h54.44.730,StroopExp,2022.2.5,59.97501440900438,
b4,stroop_trial_condtions/b3.xlsx,0.6296527572668619,1,incongruent,GREEN,red,a,distractors/4.wav,,,,,0,3,3,3,0,13,13,24,1172.6081534000004,None,0,,1174.6078252000007,P3,2023-06-08_15h54.44.730,StroopExp,2022.2.5,59.97501440900438,
b4,stroop_trial_condtions/b3.xlsx,0.2532365547687505,1,congruent,GREEN,green,s,distractors/1.wav,,,,,0,3,3,3,0,14,14,10,1177.1233164000005,s,1,1.457934699999896,1179.1227098999989,P3,2023-06-08_15h54.44.730,StroopExp,2022.2.5,59.97501440900438,
b4,stroop_trial_condtions/b3.xlsx,0.0557810844842791,1,incongruent,RED,yellow,f,distractors/4.wav,,,,,0,3,3,3,0,15,15,43,1181.6216639999984,f,1,1.1508639000021503,1183.6211484000014,P3,2023-06-08_15h54.44.730,StroopExp,2022.2.5,59.97501440900438,
b4,stroop_trial_condtions/b3.xlsx,0.48808766913605917,1,congruent,RED,red,a,distractors/4.wav,,,,,0,3,3,3,0,16,16,38,1186.120966399998,a,1,0.8844499000006181,1188.1363137000008,P3,2023-06-08_15h54.44.730,StroopExp,2022.2.5,59.97501440900438,
b4,stroop_trial_condtions/b3.xlsx,0.09103571529527676,1,incongruent,BLUE,yellow,f,distractors/3.wav,,,,,0,3,3,3,0,17,17,7,1190.6357959999987,f,1,1.3411769999984244,,P3,2023-06-08_15h54.44.730,StroopExp,2022.2.5,59.97501440900438,
b4,stroop_trial_condtions/b3.xlsx,0.22157820962509556,1,incongruent,RED,green,s,distractors/4.wav,,,,,0,3,3,3,0,18,18,26,1195.1509936000002,s,1,1.0040922999978648,,P3,2023-06-08_15h54.44.730,StroopExp,2022.2.5,59.97501440900438,
b4,stroop_trial_condtions/b3.xlsx,0.610353600261409,1,incongruent,RED,green,s,distractors/2.wav,,,,,0,3,3,3,0,19,19,16,1199.6507751999998,s,1,1.052418299997953,1201.649994200001,P3,2023-06-08_15h54.44.730,StroopExp,2022.2.5,59.97501440900438,
b4,stroop_trial_condtions/b3.xlsx,0.8543495536120658,1,congruent,YELLOW,yellow,f,distractors/3.wav,,,,,0,3,3,3,0,20,20,27,1204.1501609000006,f,1,0.9863278999982867,1206.1470016999992,P3,2023-06-08_15h54.44.730,StroopExp,2022.2.5,59.97501440900438,
b4,stroop_trial_condtions/b3.xlsx,0.264144016402854,1,congruent,RED,red,a,distractors/2.wav,,,,,0,3,3,3,0,21,21,6,1208.6459174999982,a,1,1.1608936999982689,1210.6453235000008,P3,2023-06-08_15h54.44.730,StroopExp,2022.2.5,59.97501440900438,
b4,stroop_trial_condtions/b3.xlsx,0.8013414949294776,1,incongruent,BLUE,yellow,f,distractors/4.wav,,,,,0,3,3,3,0,22,22,4,1213.161342200001,f,1,1.8517666000007011,,P3,2023-06-08_15h54.44.730,StroopExp,2022.2.5,59.97501440900438,
b4,stroop_trial_condtions/b3.xlsx,0.9277064063263939,1,incongruent,BLUE,red,a,distractors/1.wav,,,,,0,3,3,3,0,23,23,32,1217.6761239000007,a,1,1.0785344000032637,1219.6761165999997,P3,2023-06-08_15h54.44.730,StroopExp,2022.2.5,59.97501440900438,
b4,stroop_trial_condtions/b3.xlsx,0.45744716647321115,1,congruent,RED,red,a,distractors/1.wav,,,,,0,3,3,3,0,24,24,41,1222.174573799999,a,1,1.064489100001083,1224.1739826999983,P3,2023-06-08_15h54.44.730,StroopExp,2022.2.5,59.97501440900438,
b4,stroop_trial_condtions/b3.xlsx,0.6000084328909321,1,congruent,BLUE,blue,d,distractors/3.wav,,,,,0,3,3,3,0,25,25,42,1226.6898236000015,d,1,1.08864480000193,1228.689377300001,P3,2023-06-08_15h54.44.730,StroopExp,2022.2.5,59.97501440900438,
b4,stroop_trial_condtions/b3.xlsx,0.4220278048678988,1,incongruent,YELLOW,green,s,distractors/2.wav,,,,,0,3,3,3,0,26,26,33,1231.1884246000009,s,1,1.3604054999996151,1233.187670700001,P3,2023-06-08_15h54.44.730,StroopExp,2022.2.5,59.97501440900438,
b4,stroop_trial_condtions/b3.xlsx,0.46851590450319824,1,incongruent,YELLOW,green,s,distractors/1.wav,,,,,0,3,3,3,0,27,27,3,1235.6871535999999,s,1,1.9417576999985613,1237.6859194999997,P3,2023-06-08_15h54.44.730,StroopExp,2022.2.5,59.97501440900438,
b4,stroop_trial_condtions/b3.xlsx,0.5091952837801443,1,congruent,RED,red,a,distractors/3.wav,,,,,0,3,3,3,0,28,28,23,1240.185100300001,a,1,0.8533232000008866,1242.1845184999984,P3,2023-06-08_15h54.44.730,StroopExp,2022.2.5,59.97501440900438,
b4,stroop_trial_condtions/b3.xlsx,0.4699973194550694,1,incongruent,YELLOW,red,a,distractors/2.wav,,,,,0,3,3,3,0,29,29,34,1244.6839354000003,a,1,0.9690336000021489,1246.683985399999,P3,2023-06-08_15h54.44.730,StroopExp,2022.2.5,59.97501440900438,
b4,stroop_trial_condtions/b3.xlsx,0.5215658873690101,1,incongruent,YELLOW,blue,d,distractors/3.wav,,,,,0,3,3,3,0,30,30,14,1249.1840964000003,d,1,1.9506746000006387,1251.1841480000003,P3,2023-06-08_15h54.44.730,StroopExp,2022.2.5,59.97501440900438,
b4,stroop_trial_condtions/b3.xlsx,0.28983611898456463,1,incongruent,GREEN,yellow,f,distractors/2.wav,,,,,0,3,3,3,0,31,31,20,1253.6678705999984,f,1,1.9506151999994472,1255.6796959999992,P3,2023-06-08_15h54.44.730,StroopExp,2022.2.5,59.97501440900438,
b4,stroop_trial_condtions/b3.xlsx,0.7415483131081879,1,congruent,YELLOW,yellow,f,distractors/1.wav,,,,,0,3,3,3,0,32,32,22,1258.1795655999995,f,1,0.955385600002046,,P3,2023-06-08_15h54.44.730,StroopExp,2022.2.5,59.97501440900438,
b4,stroop_trial_condtions/b3.xlsx,0.9995126588586891,1,incongruent,GREEN,yellow,f,distractors/1.wav,,,,,0,3,3,3,0,33,33,39,1262.677531199999,f,1,0.9874162999985856,1264.6773127000015,P3,2023-06-08_15h54.44.730,StroopExp,2022.2.5,59.97501440900438,
b4,stroop_trial_condtions/b3.xlsx,0.5121364174675235,1,congruent,BLUE,blue,d,distractors/3.wav,,,,,0,3,3,3,0,34,34,40,1267.1764035999986,d,1,1.2078671000017493,1269.1750807999997,P3,2023-06-08_15h54.44.730,StroopExp,2022.2.5,59.97501440900438,
b4,stroop_trial_condtions/b3.xlsx,0.4256101321124697,1,congruent,BLUE,blue,d,distractors/4.wav,,,,,0,3,3,3,0,35,35,9,1271.6750156999988,d,1,1.6178732000007585,1273.6737897999992,P3,2023-06-08_15h54.44.730,StroopExp,2022.2.5,59.97501440900438,
b4,stroop_trial_condtions/b3.xlsx,0.8016808924679877,1,incongruent,YELLOW,red,a,distractors/3.wav,,,,,0,3,3,3,0,36,36,35,1276.1728737999983,a,1,1.0683519999984128,1278.1723819,P3,2023-06-08_15h54.44.730,StroopExp,2022.2.5,59.97501440900438,
b4,stroop_trial_condtions/b3.xlsx,0.9654449717548405,1,congruent,BLUE,blue,d,distractors/2.wav,,,,,0,3,3,3,0,37,37,2,1280.6887489,d,1,0.9099975999997696,,P3,2023-06-08_15h54.44.730,StroopExp,2022.2.5,59.97501440900438,
b4,stroop_trial_condtions/b3.xlsx,0.22948030212444814,1,congruent,YELLOW,yellow,f,distractors/3.wav,,,,,0,3,3,3,0,38,38,0,1285.203510700001,f,1,0.9621542999993835,1287.2030063999991,P3,2023-06-08_15h54.44.730,StroopExp,2022.2.5,59.97501440900438,
b4,stroop_trial_condtions/b3.xlsx,0.01763447907037896,1,incongruent,RED,blue,d,distractors/3.wav,,,,,0,3,3,3,0,39,39,31,1289.684939499999,d,1,1.6232657000000472,1291.6846793000004,P3,2023-06-08_15h54.44.730,StroopExp,2022.2.5,59.97501440900438,
b4,stroop_trial_condtions/b3.xlsx,0.568990759527847,1,congruent,BLUE,blue,d,distractors/3.wav,,,,,0,3,3,3,0,40,40,28,1294.1844705000003,d,1,1.038203899999644,1296.184728100001,P3,2023-06-08_15h54.44.730,StroopExp,2022.2.5,59.97501440900438,
b4,stroop_trial_condtions/b3.xlsx,0.8711656555587126,1,congruent,YELLOW,yellow,f,distractors/1.wav,,,,,0,3,3,3,0,41,41,11,1298.6680425999984,f,1,1.9408810999993875,1300.6683823999992,P3,2023-06-08_15h54.44.730,StroopExp,2022.2.5,59.97501440900438,
b4,stroop_trial_condtions/b3.xlsx,0.5078031949822321,1,congruent,YELLOW,yellow,f,distractors/3.wav,,,,,0,3,3,3,0,42,42,45,1303.1642071999995,f,1,0.8286693000009109,,P3,2023-06-08_15h54.44.730,StroopExp,2022.2.5,59.97501440900438,
b4,stroop_trial_condtions/b3.xlsx,0.5857626834280144,1,congruent,GREEN,green,s,distractors/2.wav,,,,,0,3,3,3,0,43,43,18,1307.6796958999985,s,1,1.6496480999994674,1309.678777000001,P3,2023-06-08_15h54.44.730,StroopExp,2022.2.5,59.97501440900438,
b4,stroop_trial_condtions/b3.xlsx,0.3378719033646135,1,incongruent,RED,yellow,f,distractors/4.wav,,,,,0,3,3,3,0,44,44,19,1312.1770886999984,f,1,1.7838160999999673,1314.1767322000014,P3,2023-06-08_15h54.44.730,StroopExp,2022.2.5,59.97501440900438,
b4,stroop_trial_condtions/b3.xlsx,0.3048901609321858,1,incongruent,BLUE,green,s,distractors/1.wav,,,,,0,3,3,3,0,45,45,21,1316.6764051999999,None,0,,1318.675304299999,P3,2023-06-08_15h54.44.730,StroopExp,2022.2.5,59.97501440900438,
b4,stroop_trial_condtions/b3.xlsx,0.010072895586636488,1,congruent,RED,red,a,distractors/4.wav,,,,,0,3,3,3,0,46,46,37,1321.1910695000006,a,1,0.8895701000001281,1323.1902845000004,P3,2023-06-08_15h54.44.730,StroopExp,2022.2.5,59.97501440900438,
b4,stroop_trial_condtions/b3.xlsx,0.7591509381967968,1,congruent,YELLOW,yellow,f,distractors/3.wav,,,,,0,3,3,3,0,47,47,36,1325.6731639999998,f,1,1.3352635000010196,1327.6889142,P3,2023-06-08_15h54.44.730,StroopExp,2022.2.5,59.97501440900438,
