block_number,location,Index,has_distraction,trial_type,word,color,correct_key,distraction_file_name,practice_trials_4X5.thisRepN,practice_trials_4X5.thisTrialN,practice_trials_4X5.thisN,practice_trials_4X5.thisIndex,blocks.thisRepN,blocks.thisTrialN,blocks.thisN,blocks.thisIndex,trials.thisRepN,trials.thisTrialN,trials.thisN,trials.thisIndex,key_stroop.started,key_stroop.stopped,key_stroop.keys,key_stroop.corr,key_stroop.rt,participant,date,expName,psychopyVersion,frameRate,
b1,stroop_trial_condtions/b1.xlsx,0.7445649241064577,0,congruent,GREEN,green,s,distractors/silence.wav,,,,,0,0,0,0,0,0,0,42,508.9885724999999,510.99262290000024,s,1,1.0621553000000858,P38,2023-07-10_15h39.22.524,StroopExp,2022.2.5,60.73928209811168,
b1,stroop_trial_condtions/b1.xlsx,0.9396621068767484,0,congruent,RED,red,a,distractors/silence.wav,,,,,0,0,0,0,0,1,1,21,513.4885920000002,515.4885594000002,a,1,1.2373744000001352,P38,2023-07-10_15h39.22.524,StroopExp,2022.2.5,60.73928209811168,
b1,stroop_trial_condtions/b1.xlsx,0.027168618358859753,0,incongruent,RED,yellow,f,distractors/silence.wav,,,,,0,0,0,0,0,2,2,27,517.9849208999999,519.984461,f,1,1.1207319000000098,P38,2023-07-10_15h39.22.524,StroopExp,2022.2.5,60.73928209811168,
b1,stroop_trial_condtions/b1.xlsx,0.8969522657404946,0,incongruent,YELLOW,blue,d,distractors/silence.wav,,,,,0,0,0,0,0,3,3,25,522.4830932,524.4827796,d,1,0.9665537999999287,P38,2023-07-10_15h39.22.524,StroopExp,2022.2.5,60.73928209811168,
b1,stroop_trial_condtions/b1.xlsx,0.45159790316989123,0,congruent,BLUE,blue,d,distractors/silence.wav,,,,,0,0,0,0,0,4,4,22,526.9984924,528.9981425000001,d,1,1.1891441000002487,P38,2023-07-10_15h39.22.524,StroopExp,2022.2.5,60.73928209811168,
b1,stroop_trial_condtions/b1.xlsx,0.19133216126723684,0,congruent,GREEN,green,s,distractors/silence.wav,,,,,0,0,0,0,0,5,5,43,531.4965969999998,533.4965664000001,s,1,1.0475934000000962,P38,2023-07-10_15h39.22.524,StroopExp,2022.2.5,60.73928209811168,
b1,stroop_trial_condtions/b1.xlsx,0.632437180452533,0,incongruent,RED,blue,d,distractors/silence.wav,,,,,0,0,0,0,0,6,6,19,535.9952939999998,537.9946018,d,1,1.266881099999864,P38,2023-07-10_15h39.22.524,StroopExp,2022.2.5,60.73928209811168,
b1,stroop_trial_condtions/b1.xlsx,0.680507855371767,0,incongruent,GREEN,yellow,f,distractors/silence.wav,,,,,0,0,0,0,0,7,7,33,540.4933617000002,542.4931038999998,f,1,1.106549499999801,P38,2023-07-10_15h39.22.524,StroopExp,2022.2.5,60.73928209811168,
b1,stroop_trial_condtions/b1.xlsx,0.41931537120590046,0,congruent,RED,red,a,distractors/silence.wav,,,,,0,0,0,0,0,8,8,38,544.9920762000002,546.9913854000001,a,1,1.2140746000000036,P38,2023-07-10_15h39.22.524,StroopExp,2022.2.5,60.73928209811168,
b1,stroop_trial_condtions/b1.xlsx,0.9718580164963233,0,congruent,RED,red,a,distractors/silence.wav,,,,,0,0,0,0,0,9,9,0,549.4904331000002,551.4899661999998,a,1,1.0874671999999919,P38,2023-07-10_15h39.22.524,StroopExp,2022.2.5,60.73928209811168,
b1,stroop_trial_condtions/b1.xlsx,0.9769421455207146,0,congruent,BLUE,blue,d,distractors/silence.wav,,,,,0,0,0,0,0,10,10,13,554.0058339000002,556.0055505,d,1,0.969879199999923,P38,2023-07-10_15h39.22.524,StroopExp,2022.2.5,60.73928209811168,
b1,stroop_trial_condtions/b1.xlsx,0.23739699734220088,0,incongruent,GREEN,blue,d,distractors/silence.wav,,,,,0,0,0,0,0,11,11,18,558.4893038999999,560.4892,d,1,1.1158135999999104,P38,2023-07-10_15h39.22.524,StroopExp,2022.2.5,60.73928209811168,
b1,stroop_trial_condtions/b1.xlsx,0.019360950480176498,0,incongruent,YELLOW,green,s,distractors/silence.wav,,,,,0,0,0,0,0,12,12,2,562.97251,564.9889466999998,s,1,1.051222399999915,P38,2023-07-10_15h39.22.524,StroopExp,2022.2.5,60.73928209811168,
b1,stroop_trial_condtions/b1.xlsx,0.6252124205445847,0,congruent,GREEN,green,s,distractors/silence.wav,,,,,0,0,0,0,0,13,13,24,567.4846957,,s,1,0.8273232999999891,P38,2023-07-10_15h39.22.524,StroopExp,2022.2.5,60.73928209811168,
b1,stroop_trial_condtions/b1.xlsx,0.9350978434171133,0,incongruent,RED,blue,d,distractors/silence.wav,,,,,0,0,0,0,0,14,14,17,572.0000195000002,573.9992575000001,d,1,1.0022297000000435,P38,2023-07-10_15h39.22.524,StroopExp,2022.2.5,60.73928209811168,
b1,stroop_trial_condtions/b1.xlsx,0.6478411009005055,0,incongruent,GREEN,red,a,distractors/silence.wav,,,,,0,0,0,0,0,15,15,6,576.5151443999998,,a,1,1.0365022999999383,P38,2023-07-10_15h39.22.524,StroopExp,2022.2.5,60.73928209811168,
b1,stroop_trial_condtions/b1.xlsx,0.5794916014066622,0,congruent,RED,red,a,distractors/silence.wav,,,,,0,0,0,0,0,16,16,47,581.0302007999999,583.0290165000001,a,1,1.0260278999999173,P38,2023-07-10_15h39.22.524,StroopExp,2022.2.5,60.73928209811168,
b1,stroop_trial_condtions/b1.xlsx,0.4930182611236916,0,congruent,BLUE,blue,d,distractors/silence.wav,,,,,0,0,0,0,0,17,17,7,585.5451689000001,587.5448698,d,1,0.9555238000002646,P38,2023-07-10_15h39.22.524,StroopExp,2022.2.5,60.73928209811168,
b1,stroop_trial_condtions/b1.xlsx,0.0729145768917061,0,congruent,BLUE,blue,d,distractors/silence.wav,,,,,0,0,0,0,0,18,18,3,590.0436675999999,592.0430382,d,1,1.0335763999996743,P38,2023-07-10_15h39.22.524,StroopExp,2022.2.5,60.73928209811168,
b1,stroop_trial_condtions/b1.xlsx,0.9765691810900071,0,incongruent,YELLOW,blue,d,distractors/silence.wav,,,,,0,0,0,0,0,19,19,39,594.5591955999998,,d,1,0.9547680999999102,P38,2023-07-10_15h39.22.524,StroopExp,2022.2.5,60.73928209811168,
b1,stroop_trial_condtions/b1.xlsx,0.07711709789910381,0,incongruent,BLUE,red,a,distractors/silence.wav,,,,,0,0,0,0,0,20,20,35,599.0739481,601.0732231000002,a,1,1.0000990000003185,P38,2023-07-10_15h39.22.524,StroopExp,2022.2.5,60.73928209811168,
b1,stroop_trial_condtions/b1.xlsx,0.24919007739364696,0,congruent,YELLOW,yellow,f,distractors/silence.wav,,,,,0,0,0,0,0,21,21,16,603.5897613000002,605.5897152000002,f,1,1.0501734000004035,P38,2023-07-10_15h39.22.524,StroopExp,2022.2.5,60.73928209811168,
b1,stroop_trial_condtions/b1.xlsx,0.5430706368691302,0,incongruent,BLUE,yellow,f,distractors/silence.wav,,,,,0,0,0,0,0,22,22,1,608.0730392999999,610.0729821999998,f,1,0.9503464999997959,P38,2023-07-10_15h39.22.524,StroopExp,2022.2.5,60.73928209811168,
b1,stroop_trial_condtions/b1.xlsx,0.6869684900918854,0,congruent,YELLOW,yellow,f,distractors/silence.wav,,,,,0,0,0,0,0,23,23,45,612.5694432999999,614.5685465000001,f,1,0.8203724999998485,P38,2023-07-10_15h39.22.524,StroopExp,2022.2.5,60.73928209811168,
b1,stroop_trial_condtions/b1.xlsx,0.4017822535991459,0,incongruent,YELLOW,red,a,distractors/silence.wav,,,,,0,0,0,0,0,24,24,12,617.0677260000002,619.0669373999999,a,1,0.9960706000001665,P38,2023-07-10_15h39.22.524,StroopExp,2022.2.5,60.73928209811168,
b1,stroop_trial_condtions/b1.xlsx,0.25693203245358776,0,congruent,BLUE,blue,d,distractors/silence.wav,,,,,0,0,0,0,0,25,25,30,621.5829779999999,623.5822698000002,d,1,0.970787300000211,P38,2023-07-10_15h39.22.524,StroopExp,2022.2.5,60.73928209811168,
b1,stroop_trial_condtions/b1.xlsx,0.870406961301538,0,congruent,YELLOW,yellow,f,distractors/silence.wav,,,,,0,0,0,0,0,26,26,11,626.0809947000002,628.0807254000001,f,1,0.9310703000001013,P38,2023-07-10_15h39.22.524,StroopExp,2022.2.5,60.73928209811168,
b1,stroop_trial_condtions/b1.xlsx,0.5480879446861618,0,congruent,YELLOW,yellow,f,distractors/silence.wav,,,,,0,0,0,0,0,27,27,32,630.5799969999998,632.5793723000002,f,1,0.9332163999997647,P38,2023-07-10_15h39.22.524,StroopExp,2022.2.5,60.73928209811168,
b1,stroop_trial_condtions/b1.xlsx,0.7336815417486652,0,incongruent,BLUE,green,s,distractors/silence.wav,,,,,0,0,0,0,0,28,28,15,635.0786389,637.0774876,s,1,1.2901254000003064,P38,2023-07-10_15h39.22.524,StroopExp,2022.2.5,60.73928209811168,
b1,stroop_trial_condtions/b1.xlsx,0.922953448054004,0,congruent,RED,red,a,distractors/silence.wav,,,,,0,0,0,0,0,29,29,40,639.5768246000002,641.5762202999999,a,1,1.167066700000305,P38,2023-07-10_15h39.22.524,StroopExp,2022.2.5,60.73928209811168,
b1,stroop_trial_condtions/b1.xlsx,0.5429940223524143,0,congruent,YELLOW,yellow,f,distractors/silence.wav,,,,,0,0,0,0,0,30,30,28,644.0920541,646.0917208000001,f,1,1.0239583000002312,P38,2023-07-10_15h39.22.524,StroopExp,2022.2.5,60.73928209811168,
b1,stroop_trial_condtions/b1.xlsx,0.8708935669205526,0,congruent,RED,red,a,distractors/silence.wav,,,,,0,0,0,0,0,31,31,9,648.5904092999999,650.5903976,a,1,0.9795665999999983,P38,2023-07-10_15h39.22.524,StroopExp,2022.2.5,60.73928209811168,
b1,stroop_trial_condtions/b1.xlsx,0.5831965246907577,0,congruent,BLUE,blue,d,distractors/silence.wav,,,,,0,0,0,0,0,32,32,44,653.0740042000002,655.0740483999998,d,1,1.1999860000000808,P38,2023-07-10_15h39.22.524,StroopExp,2022.2.5,60.73928209811168,
b1,stroop_trial_condtions/b1.xlsx,0.8309483305278348,0,incongruent,BLUE,green,s,distractors/silence.wav,,,,,0,0,0,0,0,33,33,46,657.5572983000002,659.5704641000002,s,1,1.4543188999996346,P38,2023-07-10_15h39.22.524,StroopExp,2022.2.5,60.73928209811168,
b1,stroop_trial_condtions/b1.xlsx,0.6604351330374253,0,congruent,GREEN,green,s,distractors/silence.wav,,,,,0,0,0,0,0,34,34,4,662.0688915000001,664.0689293999999,s,1,1.0449549999998453,P38,2023-07-10_15h39.22.524,StroopExp,2022.2.5,60.73928209811168,
b1,stroop_trial_condtions/b1.xlsx,0.7089760381977726,0,congruent,GREEN,green,s,distractors/silence.wav,,,,,0,0,0,0,0,35,35,8,666.5843642999998,668.5840956000002,s,1,1.1294284000000516,P38,2023-07-10_15h39.22.524,StroopExp,2022.2.5,60.73928209811168,
b1,stroop_trial_condtions/b1.xlsx,0.674408475762876,0,incongruent,BLUE,yellow,f,distractors/silence.wav,,,,,0,0,0,0,0,36,36,26,671.0992445000002,673.0984942,f,1,1.0993791000000783,P38,2023-07-10_15h39.22.524,StroopExp,2022.2.5,60.73928209811168,
b1,stroop_trial_condtions/b1.xlsx,0.6671969061834688,0,incongruent,RED,green,s,distractors/silence.wav,,,,,0,0,0,0,0,37,37,36,675.5982697999998,677.5976344000001,s,1,1.017678100000012,P38,2023-07-10_15h39.22.524,StroopExp,2022.2.5,60.73928209811168,
b1,stroop_trial_condtions/b1.xlsx,0.832802100155878,0,incongruent,GREEN,red,a,distractors/silence.wav,,,,,0,0,0,0,0,38,38,41,680.1129257000002,682.1124823999999,a,1,1.1730701000001318,P38,2023-07-10_15h39.22.524,StroopExp,2022.2.5,60.73928209811168,
b1,stroop_trial_condtions/b1.xlsx,0.9366695365255577,0,incongruent,GREEN,yellow,f,distractors/silence.wav,,,,,0,0,0,0,0,39,39,34,684.6280419999998,686.6276148000002,f,1,0.823602800000117,P38,2023-07-10_15h39.22.524,StroopExp,2022.2.5,60.73928209811168,
b1,stroop_trial_condtions/b1.xlsx,0.2518748957010212,0,incongruent,GREEN,blue,d,distractors/silence.wav,,,,,0,0,0,0,0,40,40,37,689.1455160999999,,d,1,1.2200947000001179,P38,2023-07-10_15h39.22.524,StroopExp,2022.2.5,60.73928209811168,
b1,stroop_trial_condtions/b1.xlsx,0.15319618406080382,0,incongruent,YELLOW,green,s,distractors/silence.wav,,,,,0,0,0,0,0,41,41,31,693.6582692000002,695.6577146,s,1,1.312242000000424,P38,2023-07-10_15h39.22.524,StroopExp,2022.2.5,60.73928209811168,
b1,stroop_trial_condtions/b1.xlsx,0.35032813659302076,0,congruent,GREEN,green,s,distractors/silence.wav,,,,,0,0,0,0,0,42,42,20,698.1577943000002,700.1577729999999,s,1,0.8723979999999756,P38,2023-07-10_15h39.22.524,StroopExp,2022.2.5,60.73928209811168,
b1,stroop_trial_condtions/b1.xlsx,0.7296842337577286,0,incongruent,BLUE,red,a,distractors/silence.wav,,,,,0,0,0,0,0,43,43,29,702.6576344999999,704.6579379,a,1,0.9920928000001368,P38,2023-07-10_15h39.22.524,StroopExp,2022.2.5,60.73928209811168,
b1,stroop_trial_condtions/b1.xlsx,0.19939336354685822,0,congruent,YELLOW,yellow,f,distractors/silence.wav,,,,,0,0,0,0,0,44,44,23,707.1581108,,f,1,1.02219070000001,P38,2023-07-10_15h39.22.524,StroopExp,2022.2.5,60.73928209811168,
b1,stroop_trial_condtions/b1.xlsx,0.5716507137496009,0,incongruent,YELLOW,red,a,distractors/silence.wav,,,,,0,0,0,0,0,45,45,5,711.6695338,,a,1,0.954987600000095,P38,2023-07-10_15h39.22.524,StroopExp,2022.2.5,60.73928209811168,
b1,stroop_trial_condtions/b1.xlsx,0.004767373540519926,0,incongruent,RED,green,s,distractors/silence.wav,,,,,0,0,0,0,0,46,46,14,716.1838597999999,718.1835810000002,s,1,0.974382400000195,P38,2023-07-10_15h39.22.524,StroopExp,2022.2.5,60.73928209811168,
b1,stroop_trial_condtions/b1.xlsx,0.9836363330757953,0,incongruent,RED,yellow,f,distractors/silence.wav,,,,,0,0,0,0,0,47,47,10,720.7001036000001,,f,1,0.9075448000003234,P38,2023-07-10_15h39.22.524,StroopExp,2022.2.5,60.73928209811168,
b2,stroop_trial_condtions/b2.xlsx,0.3293331866279865,1,incongruent,YELLOW,green,s,distractors/2.wav,,,,,0,1,1,1,0,0,0,6,812.8850201999999,814.8845645000001,s,1,1.0971426999999494,P38,2023-07-10_15h39.22.524,StroopExp,2022.2.5,60.73928209811168,
b2,stroop_trial_condtions/b2.xlsx,0.15564368800765982,1,incongruent,YELLOW,blue,d,distractors/3.wav,,,,,0,1,1,1,0,1,1,39,817.4000111999999,819.4172570000001,d,1,1.0103162999998858,P38,2023-07-10_15h39.22.524,StroopExp,2022.2.5,60.73928209811168,
b2,stroop_trial_condtions/b2.xlsx,0.19636652195914828,1,incongruent,GREEN,red,a,distractors/1.wav,,,,,0,1,1,1,0,2,2,9,821.8988242999999,823.8978040000002,a,1,0.9249348999996982,P38,2023-07-10_15h39.22.524,StroopExp,2022.2.5,60.73928209811168,
b2,stroop_trial_condtions/b2.xlsx,0.10839814050721508,1,incongruent,RED,green,s,distractors/1.wav,,,,,0,1,1,1,0,3,3,14,826.396968,828.3965809000001,s,1,0.9413540999998986,P38,2023-07-10_15h39.22.524,StroopExp,2022.2.5,60.73928209811168,
b2,stroop_trial_condtions/b2.xlsx,0.10715468186921961,1,incongruent,BLUE,green,s,distractors/3.wav,,,,,0,1,1,1,0,4,4,33,830.9125941000002,,s,1,0.8573845999999321,P38,2023-07-10_15h39.22.524,StroopExp,2022.2.5,60.73928209811168,
b2,stroop_trial_condtions/b2.xlsx,0.4832744640468789,1,congruent,YELLOW,yellow,f,distractors/1.wav,,,,,0,1,1,1,0,5,5,24,835.4271548000002,837.4268154000001,f,1,0.9526301999999305,P38,2023-07-10_15h39.22.524,StroopExp,2022.2.5,60.73928209811168,
b2,stroop_trial_condtions/b2.xlsx,0.5666506333865139,1,incongruent,GREEN,yellow,f,distractors/3.wav,,,,,0,1,1,1,0,6,6,0,839.9265670999998,841.9264050000002,f,1,1.0993068000002495,P38,2023-07-10_15h39.22.524,StroopExp,2022.2.5,60.73928209811168,
b2,stroop_trial_condtions/b2.xlsx,0.6661419533997107,1,congruent,RED,red,a,distractors/2.wav,,,,,0,1,1,1,0,7,7,3,844.4265669000001,846.4263690000002,a,1,1.0832304000000477,P38,2023-07-10_15h39.22.524,StroopExp,2022.2.5,60.73928209811168,
b2,stroop_trial_condtions/b2.xlsx,0.3614790911510004,1,congruent,GREEN,green,s,distractors/1.wav,,,,,0,1,1,1,0,8,8,17,848.9227992000001,850.9469238000001,s,1,1.13316900000018,P38,2023-07-10_15h39.22.524,StroopExp,2022.2.5,60.73928209811168,
b2,stroop_trial_condtions/b2.xlsx,0.23156741124673452,1,congruent,GREEN,green,s,distractors/4.wav,,,,,0,1,1,1,0,9,9,8,853.4216291000002,,s,1,0.8112141000001429,P38,2023-07-10_15h39.22.524,StroopExp,2022.2.5,60.73928209811168,
b2,stroop_trial_condtions/b2.xlsx,0.8857086195357853,1,congruent,BLUE,blue,d,distractors/1.wav,,,,,0,1,1,1,0,10,10,16,857.9365647999998,859.9354309999999,d,1,0.9352056999996421,P38,2023-07-10_15h39.22.524,StroopExp,2022.2.5,60.73928209811168,
b2,stroop_trial_condtions/b2.xlsx,0.08769688168855672,1,incongruent,RED,green,s,distractors/3.wav,,,,,0,1,1,1,0,11,11,47,862.4348365000001,864.4336793000002,s,1,1.561787600000116,P38,2023-07-10_15h39.22.524,StroopExp,2022.2.5,60.73928209811168,
b2,stroop_trial_condtions/b2.xlsx,0.4926856322739591,1,congruent,RED,red,a,distractors/4.wav,,,,,0,1,1,1,0,12,12,27,866.9333572999999,868.9329143,a,1,0.9403047999999217,P38,2023-07-10_15h39.22.524,StroopExp,2022.2.5,60.73928209811168,
b2,stroop_trial_condtions/b2.xlsx,0.6295899639289376,1,congruent,RED,red,a,distractors/2.wav,,,,,0,1,1,1,0,13,13,11,871.4483854999999,873.4475839000002,a,1,0.8501181999999972,P38,2023-07-10_15h39.22.524,StroopExp,2022.2.5,60.73928209811168,
b2,stroop_trial_condtions/b2.xlsx,0.7676806241710538,1,congruent,BLUE,blue,d,distractors/3.wav,,,,,0,1,1,1,0,14,14,32,875.9637895000001,877.9633979999999,d,1,0.9244486000002325,P38,2023-07-10_15h39.22.524,StroopExp,2022.2.5,60.73928209811168,
b2,stroop_trial_condtions/b2.xlsx,0.09088957165746492,1,congruent,RED,red,a,distractors/3.wav,,,,,0,1,1,1,0,15,15,41,880.4620724000001,882.4613008000001,a,1,0.9956968999999845,P38,2023-07-10_15h39.22.524,StroopExp,2022.2.5,60.73928209811168,
b2,stroop_trial_condtions/b2.xlsx,0.828978615866739,1,incongruent,RED,yellow,f,distractors/4.wav,,,,,0,1,1,1,0,16,16,31,884.9772978000001,886.9768825000001,f,1,0.9747536999998374,P38,2023-07-10_15h39.22.524,StroopExp,2022.2.5,60.73928209811168,
b2,stroop_trial_condtions/b2.xlsx,0.8135146664790234,1,incongruent,GREEN,red,a,distractors/3.wav,,,,,0,1,1,1,0,17,17,40,889.4612488000002,891.4605213,a,1,1.2489509000001817,P38,2023-07-10_15h39.22.524,StroopExp,2022.2.5,60.73928209811168,
b2,stroop_trial_condtions/b2.xlsx,0.2950231286066718,1,incongruent,BLUE,red,a,distractors/1.wav,,,,,0,1,1,1,0,18,18,37,893.9438817,895.9571983999999,a,1,0.8607986000001802,P38,2023-07-10_15h39.22.524,StroopExp,2022.2.5,60.73928209811168,
b2,stroop_trial_condtions/b2.xlsx,0.7131950070563138,1,congruent,GREEN,green,s,distractors/2.wav,,,,,0,1,1,1,0,19,19,10,898.4561577999998,900.4553265999998,s,1,1.0696963000000324,P38,2023-07-10_15h39.22.524,StroopExp,2022.2.5,60.73928209811168,
b2,stroop_trial_condtions/b2.xlsx,0.21174317193635972,1,congruent,YELLOW,yellow,f,distractors/2.wav,,,,,0,1,1,1,0,20,20,38,902.9544731000001,904.9538997,f,1,0.8795051000001877,P38,2023-07-10_15h39.22.524,StroopExp,2022.2.5,60.73928209811168,
b2,stroop_trial_condtions/b2.xlsx,0.9668213022564922,1,congruent,BLUE,blue,d,distractors/2.wav,,,,,0,1,1,1,0,21,21,21,907.4696319,909.4688775999998,d,1,0.8491948000000775,P38,2023-07-10_15h39.22.524,StroopExp,2022.2.5,60.73928209811168,
b2,stroop_trial_condtions/b2.xlsx,0.4889714654954811,1,incongruent,BLUE,red,a,distractors/4.wav,,,,,0,1,1,1,0,22,22,29,911.9682192,,a,1,0.9001594000001205,P38,2023-07-10_15h39.22.524,StroopExp,2022.2.5,60.73928209811168,
b2,stroop_trial_condtions/b2.xlsx,0.12819537203794318,1,incongruent,YELLOW,red,a,distractors/3.wav,,,,,0,1,1,1,0,23,23,35,916.4830833999999,918.4828186999998,a,1,1.1825164000001678,P38,2023-07-10_15h39.22.524,StroopExp,2022.2.5,60.73928209811168,
b2,stroop_trial_condtions/b2.xlsx,0.8140627153069117,1,congruent,BLUE,blue,d,distractors/2.wav,,,,,0,1,1,1,0,24,24,36,920.9817533999999,922.9814594999998,d,1,0.9798571999999695,P38,2023-07-10_15h39.22.524,StroopExp,2022.2.5,60.73928209811168,
b2,stroop_trial_condtions/b2.xlsx,0.16494802758791438,1,congruent,GREEN,green,s,distractors/4.wav,,,,,0,1,1,1,0,25,25,23,925.4801775999999,927.4795548000002,s,1,1.005605999999716,P38,2023-07-10_15h39.22.524,StroopExp,2022.2.5,60.73928209811168,
b2,stroop_trial_condtions/b2.xlsx,0.041649080139953165,1,incongruent,RED,yellow,f,distractors/4.wav,,,,,0,1,1,1,0,26,26,2,929.9790652000002,931.9779699000001,f,1,1.2333574999997836,P38,2023-07-10_15h39.22.524,StroopExp,2022.2.5,60.73928209811168,
b2,stroop_trial_condtions/b2.xlsx,0.9734714245974094,1,congruent,BLUE,blue,d,distractors/2.wav,,,,,0,1,1,1,0,27,27,1,934.4941822999999,936.4943395999999,d,1,0.9338010999999824,P38,2023-07-10_15h39.22.524,StroopExp,2022.2.5,60.73928209811168,
b2,stroop_trial_condtions/b2.xlsx,0.7962676920675457,1,incongruent,RED,blue,d,distractors/4.wav,,,,,0,1,1,1,0,28,28,46,938.9775168000001,940.9780896000002,d,1,1.0602571999997963,P38,2023-07-10_15h39.22.524,StroopExp,2022.2.5,60.73928209811168,
b2,stroop_trial_condtions/b2.xlsx,0.255397179890806,1,congruent,YELLOW,yellow,f,distractors/1.wav,,,,,0,1,1,1,0,29,29,45,943.4783011,,f,1,0.9238234999997985,P38,2023-07-10_15h39.22.524,StroopExp,2022.2.5,60.73928209811168,
b2,stroop_trial_condtions/b2.xlsx,0.5007983240031381,1,incongruent,BLUE,green,s,distractors/1.wav,,,,,0,1,1,1,0,30,30,18,947.9896254999999,,s,1,1.2989658999999847,P38,2023-07-10_15h39.22.524,StroopExp,2022.2.5,60.73928209811168,
b2,stroop_trial_condtions/b2.xlsx,0.776926077509408,1,incongruent,GREEN,blue,d,distractors/4.wav,,,,,0,1,1,1,0,31,31,22,952.4877801000002,954.4874906999999,d,1,1.0524391999997533,P38,2023-07-10_15h39.22.524,StroopExp,2022.2.5,60.73928209811168,
b2,stroop_trial_condtions/b2.xlsx,0.8384300714767312,1,congruent,RED,red,a,distractors/1.wav,,,,,0,1,1,1,0,32,32,25,957.0028559000002,959.0021915000002,a,1,0.9254363999998532,P38,2023-07-10_15h39.22.524,StroopExp,2022.2.5,60.73928209811168,
b2,stroop_trial_condtions/b2.xlsx,0.9005674222221599,1,congruent,BLUE,blue,d,distractors/2.wav,,,,,0,1,1,1,0,33,33,30,961.5016119000002,963.5005648000001,d,1,1.0427866999998514,P38,2023-07-10_15h39.22.524,StroopExp,2022.2.5,60.73928209811168,
b2,stroop_trial_condtions/b2.xlsx,0.03433248455064386,1,incongruent,YELLOW,red,a,distractors/2.wav,,,,,0,1,1,1,0,34,34,13,966.0000126,967.9988579000001,a,1,1.235158500000125,P38,2023-07-10_15h39.22.524,StroopExp,2022.2.5,60.73928209811168,
b2,stroop_trial_condtions/b2.xlsx,0.06502382441476195,1,incongruent,GREEN,yellow,f,distractors/1.wav,,,,,0,1,1,1,0,35,35,7,970.4981032000001,972.4978894999999,f,1,1.0383716999999706,P38,2023-07-10_15h39.22.524,StroopExp,2022.2.5,60.73928209811168,
b2,stroop_trial_condtions/b2.xlsx,0.5030786504893666,1,incongruent,YELLOW,green,s,distractors/4.wav,,,,,0,1,1,1,0,36,36,19,975.0133691000001,977.0127704000001,s,1,1.032767100000001,P38,2023-07-10_15h39.22.524,StroopExp,2022.2.5,60.73928209811168,
b2,stroop_trial_condtions/b2.xlsx,0.33083395410092575,1,incongruent,BLUE,yellow,f,distractors/4.wav,,,,,0,1,1,1,0,37,37,5,979.5120434,981.5115255000001,f,1,1.008201900000131,P38,2023-07-10_15h39.22.524,StroopExp,2022.2.5,60.73928209811168,
b2,stroop_trial_condtions/b2.xlsx,0.011991741755762342,1,congruent,RED,red,a,distractors/4.wav,,,,,0,1,1,1,0,38,38,42,983.9953252,985.9956553000002,a,1,0.9498086999997213,P38,2023-07-10_15h39.22.524,StroopExp,2022.2.5,60.73928209811168,
b2,stroop_trial_condtions/b2.xlsx,0.4249079497252247,1,congruent,GREEN,green,s,distractors/2.wav,,,,,0,1,1,1,0,39,39,4,988.4785477999999,990.4916337999998,s,1,1.0430893999996442,P38,2023-07-10_15h39.22.524,StroopExp,2022.2.5,60.73928209811168,
b2,stroop_trial_condtions/b2.xlsx,0.8586137871935915,1,incongruent,YELLOW,blue,d,distractors/3.wav,,,,,0,1,1,1,0,40,40,44,992.9909210999999,994.9900037000002,d,1,0.9947707999999693,P38,2023-07-10_15h39.22.524,StroopExp,2022.2.5,60.73928209811168,
b2,stroop_trial_condtions/b2.xlsx,0.7331852058029119,1,incongruent,GREEN,blue,d,distractors/4.wav,,,,,0,1,1,1,0,41,41,28,997.5058488999998,999.5052372999999,d,1,0.8118390999998155,P38,2023-07-10_15h39.22.524,StroopExp,2022.2.5,60.73928209811168,
b2,stroop_trial_condtions/b2.xlsx,0.06730533561031782,1,incongruent,BLUE,yellow,f,distractors/3.wav,,,,,0,1,1,1,0,42,42,26,1002.004602,1004.0039397,f,1,1.0156680000000051,P38,2023-07-10_15h39.22.524,StroopExp,2022.2.5,60.73928209811168,
b2,stroop_trial_condtions/b2.xlsx,0.14441839566692105,1,congruent,GREEN,green,s,distractors/1.wav,,,,,0,1,1,1,0,43,43,43,1006.5031321000001,1008.5029061999999,s,1,1.1265545000001111,P38,2023-07-10_15h39.22.524,StroopExp,2022.2.5,60.73928209811168,
b2,stroop_trial_condtions/b2.xlsx,0.5224761727455313,1,incongruent,RED,blue,d,distractors/1.wav,,,,,0,1,1,1,0,44,44,20,1011.0016033000002,1013.0007405000001,d,1,0.9609082000001763,P38,2023-07-10_15h39.22.524,StroopExp,2022.2.5,60.73928209811168,
b2,stroop_trial_condtions/b2.xlsx,0.3400635619663932,1,congruent,YELLOW,yellow,f,distractors/3.wav,,,,,0,1,1,1,0,45,45,12,1015.4998759,1017.4991163999998,f,1,1.1497438000001239,P38,2023-07-10_15h39.22.524,StroopExp,2022.2.5,60.73928209811168,
b2,stroop_trial_condtions/b2.xlsx,0.3240706252403076,1,congruent,YELLOW,yellow,f,distractors/3.wav,,,,,0,1,1,1,0,46,46,15,1019.9983575000001,1021.9974179000001,f,1,1.040164300000015,P38,2023-07-10_15h39.22.524,StroopExp,2022.2.5,60.73928209811168,
b2,stroop_trial_condtions/b2.xlsx,0.5317591854488619,1,congruent,YELLOW,yellow,f,distractors/2.wav,,,,,0,1,1,1,0,47,47,34,1024.4967831,1026.4962307,f,1,0.9227940999999191,P38,2023-07-10_15h39.22.524,StroopExp,2022.2.5,60.73928209811168,
b3,stroop_trial_condtions/b1.xlsx,0.5480879446861618,0,congruent,YELLOW,yellow,f,distractors/silence.wav,,,,,0,2,2,2,0,0,0,32,1156.8523688,,f,1,0.891939199999797,P38,2023-07-10_15h39.22.524,StroopExp,2022.2.5,60.73928209811168,
b3,stroop_trial_condtions/b1.xlsx,0.07711709789910381,0,incongruent,BLUE,red,a,distractors/silence.wav,,,,,0,2,2,2,0,1,1,35,1161.3672815,1163.3663964000002,a,1,1.0572814999995899,P38,2023-07-10_15h39.22.524,StroopExp,2022.2.5,60.73928209811168,
b3,stroop_trial_condtions/b1.xlsx,0.5831965246907577,0,congruent,BLUE,blue,d,distractors/silence.wav,,,,,0,2,2,2,0,2,2,44,1165.8656634,1167.8646532000002,d,1,0.9864274999999907,P38,2023-07-10_15h39.22.524,StroopExp,2022.2.5,60.73928209811168,
b3,stroop_trial_condtions/b1.xlsx,0.23739699734220088,0,incongruent,GREEN,blue,d,distractors/silence.wav,,,,,0,2,2,2,0,3,3,18,1170.3641980000002,1172.3646017,d,1,0.9254080000000613,P38,2023-07-10_15h39.22.524,StroopExp,2022.2.5,60.73928209811168,
b3,stroop_trial_condtions/b1.xlsx,0.35032813659302076,0,congruent,GREEN,green,s,distractors/silence.wav,,,,,0,2,2,2,0,4,4,20,1174.8645289,1176.8642768,a,0,0.9751124999997955,P38,2023-07-10_15h39.22.524,StroopExp,2022.2.5,60.73928209811168,
b3,stroop_trial_condtions/b1.xlsx,0.019360950480176498,0,incongruent,YELLOW,green,s,distractors/silence.wav,,,,,0,2,2,2,0,5,5,2,1179.3610870000002,1181.3602688,s,1,1.0584819000000607,P38,2023-07-10_15h39.22.524,StroopExp,2022.2.5,60.73928209811168,
b3,stroop_trial_condtions/b1.xlsx,0.24919007739364696,0,congruent,YELLOW,yellow,f,distractors/silence.wav,,,,,0,2,2,2,0,6,6,16,1183.8596363000001,1185.8588040999998,f,1,0.9495053000000553,P38,2023-07-10_15h39.22.524,StroopExp,2022.2.5,60.73928209811168,
b3,stroop_trial_condtions/b1.xlsx,0.9396621068767484,0,congruent,RED,red,a,distractors/silence.wav,,,,,0,2,2,2,0,7,7,21,1188.3744814000001,1190.3739424999999,a,1,1.0431829999997717,P38,2023-07-10_15h39.22.524,StroopExp,2022.2.5,60.73928209811168,
b3,stroop_trial_condtions/b1.xlsx,0.5430706368691302,0,incongruent,BLUE,yellow,f,distractors/silence.wav,,,,,0,2,2,2,0,8,8,1,1192.8734541,1194.8724182,f,1,1.06574640000008,P38,2023-07-10_15h39.22.524,StroopExp,2022.2.5,60.73928209811168,
b3,stroop_trial_condtions/b1.xlsx,0.870406961301538,0,congruent,YELLOW,yellow,f,distractors/silence.wav,,,,,0,2,2,2,0,9,9,11,1197.3716734,,f,1,1.0817126000001736,P38,2023-07-10_15h39.22.524,StroopExp,2022.2.5,60.73928209811168,
b3,stroop_trial_condtions/b1.xlsx,0.7089760381977726,0,congruent,GREEN,green,s,distractors/silence.wav,,,,,0,2,2,2,0,10,10,8,1201.8867971,1203.8859993,s,1,1.0327957999998034,P38,2023-07-10_15h39.22.524,StroopExp,2022.2.5,60.73928209811168,
b3,stroop_trial_condtions/b1.xlsx,0.8708935669205526,0,congruent,RED,red,a,distractors/silence.wav,,,,,0,2,2,2,0,11,11,9,1206.3851783999999,1208.3841939,a,1,1.0592046000001574,P38,2023-07-10_15h39.22.524,StroopExp,2022.2.5,60.73928209811168,
b3,stroop_trial_condtions/b1.xlsx,0.674408475762876,0,incongruent,BLUE,yellow,f,distractors/silence.wav,,,,,0,2,2,2,0,12,12,26,1210.9003475,1212.8994671,f,1,0.9583228000001327,P38,2023-07-10_15h39.22.524,StroopExp,2022.2.5,60.73928209811168,
b3,stroop_trial_condtions/b1.xlsx,0.922953448054004,0,congruent,RED,red,a,distractors/silence.wav,,,,,0,2,2,2,0,13,13,40,1215.3995478000002,,a,1,1.0086824999998498,P38,2023-07-10_15h39.22.524,StroopExp,2022.2.5,60.73928209811168,
b3,stroop_trial_condtions/b1.xlsx,0.9718580164963233,0,congruent,RED,red,a,distractors/silence.wav,,,,,0,2,2,2,0,14,14,0,1219.8983821000002,1221.8987388,a,1,0.9113720999998804,P38,2023-07-10_15h39.22.524,StroopExp,2022.2.5,60.73928209811168,
b3,stroop_trial_condtions/b1.xlsx,0.9836363330757953,0,incongruent,RED,yellow,f,distractors/silence.wav,,,,,0,2,2,2,0,15,15,10,1224.3820402000001,1226.3820256,f,1,1.0837354000000232,P38,2023-07-10_15h39.22.524,StroopExp,2022.2.5,60.73928209811168,
b3,stroop_trial_condtions/b1.xlsx,0.6604351330374253,0,congruent,GREEN,green,s,distractors/silence.wav,,,,,0,2,2,2,0,16,16,4,1228.8772924,1230.8770819000001,s,1,0.8968144000000393,P38,2023-07-10_15h39.22.524,StroopExp,2022.2.5,60.73928209811168,
b3,stroop_trial_condtions/b1.xlsx,0.5716507137496009,0,incongruent,YELLOW,red,a,distractors/silence.wav,,,,,0,2,2,2,0,17,17,5,1233.3761776000001,1235.3754893999999,a,1,1.4263098000001264,P38,2023-07-10_15h39.22.524,StroopExp,2022.2.5,60.73928209811168,
b3,stroop_trial_condtions/b1.xlsx,0.45159790316989123,0,congruent,BLUE,blue,d,distractors/silence.wav,,,,,0,2,2,2,0,18,18,22,1237.8743915,1239.8741069000002,d,1,1.1165441999996801,P38,2023-07-10_15h39.22.524,StroopExp,2022.2.5,60.73928209811168,
b3,stroop_trial_condtions/b1.xlsx,0.25693203245358776,0,congruent,BLUE,blue,d,distractors/silence.wav,,,,,0,2,2,2,0,19,19,30,1242.3731337,1244.3722755,d,1,1.1549652999997306,P38,2023-07-10_15h39.22.524,StroopExp,2022.2.5,60.73928209811168,
b3,stroop_trial_condtions/b1.xlsx,0.9350978434171133,0,incongruent,RED,blue,d,distractors/silence.wav,,,,,0,2,2,2,0,20,20,17,1246.8715848000002,1248.8710357,d,1,1.2468125000000327,P38,2023-07-10_15h39.22.524,StroopExp,2022.2.5,60.73928209811168,
b3,stroop_trial_condtions/b1.xlsx,0.9769421455207146,0,congruent,BLUE,blue,d,distractors/silence.wav,,,,,0,2,2,2,0,21,21,13,1251.3868241999999,1253.3862398,d,1,0.8534229000001687,P38,2023-07-10_15h39.22.524,StroopExp,2022.2.5,60.73928209811168,
b3,stroop_trial_condtions/b1.xlsx,0.004767373540519926,0,incongruent,RED,green,s,distractors/silence.wav,,,,,0,2,2,2,0,22,22,14,1255.9019806000001,1257.9013196,s,1,1.0678287000000637,P38,2023-07-10_15h39.22.524,StroopExp,2022.2.5,60.73928209811168,
b3,stroop_trial_condtions/b1.xlsx,0.6478411009005055,0,incongruent,GREEN,red,a,distractors/silence.wav,,,,,0,2,2,2,0,23,23,6,1260.4002957000002,1262.3999229,a,1,0.9996801000002051,P38,2023-07-10_15h39.22.524,StroopExp,2022.2.5,60.73928209811168,
b3,stroop_trial_condtions/b1.xlsx,0.680507855371767,0,incongruent,GREEN,yellow,f,distractors/silence.wav,,,,,0,2,2,2,0,24,24,33,1264.8988994000001,1266.8987465999999,f,1,1.1114410000000134,P38,2023-07-10_15h39.22.524,StroopExp,2022.2.5,60.73928209811168,
b3,stroop_trial_condtions/b1.xlsx,0.9765691810900071,0,incongruent,YELLOW,blue,d,distractors/silence.wav,,,,,0,2,2,2,0,25,25,39,1269.3825829000002,1271.3826230999998,d,1,1.6851435999997193,P38,2023-07-10_15h39.22.524,StroopExp,2022.2.5,60.73928209811168,
b3,stroop_trial_condtions/b1.xlsx,0.8969522657404946,0,incongruent,YELLOW,blue,d,distractors/silence.wav,,,,,0,2,2,2,0,26,26,25,1273.8625869000002,1275.8616247999998,d,1,0.8710024000001795,P38,2023-07-10_15h39.22.524,StroopExp,2022.2.5,60.73928209811168,
b3,stroop_trial_condtions/b1.xlsx,0.41931537120590046,0,congruent,RED,red,a,distractors/silence.wav,,,,,0,2,2,2,0,27,27,38,1278.3780163000001,,a,1,1.1375864999999976,P38,2023-07-10_15h39.22.524,StroopExp,2022.2.5,60.73928209811168,
b3,stroop_trial_condtions/b1.xlsx,0.9366695365255577,0,incongruent,GREEN,yellow,f,distractors/silence.wav,,,,,0,2,2,2,0,28,28,34,1282.89295,,f,1,1.233200499999839,P38,2023-07-10_15h39.22.524,StroopExp,2022.2.5,60.73928209811168,
b3,stroop_trial_condtions/b1.xlsx,0.632437180452533,0,incongruent,RED,blue,d,distractors/silence.wav,,,,,0,2,2,2,0,29,29,19,1287.4078451,1289.4071801,d,1,0.9862069000000702,P38,2023-07-10_15h39.22.524,StroopExp,2022.2.5,60.73928209811168,
b3,stroop_trial_condtions/b1.xlsx,0.2518748957010212,0,incongruent,GREEN,blue,d,distractors/silence.wav,,,,,0,2,2,2,0,30,30,37,1291.9060089,1293.9053649000002,d,1,1.1120452000000114,P38,2023-07-10_15h39.22.524,StroopExp,2022.2.5,60.73928209811168,
b3,stroop_trial_condtions/b1.xlsx,0.5429940223524143,0,congruent,YELLOW,yellow,f,distractors/silence.wav,,,,,0,2,2,2,0,31,31,28,1296.4218492999998,,f,1,0.973778499999753,P38,2023-07-10_15h39.22.524,StroopExp,2022.2.5,60.73928209811168,
b3,stroop_trial_condtions/b1.xlsx,0.7445649241064577,0,congruent,GREEN,green,s,distractors/silence.wav,,,,,0,2,2,2,0,32,32,42,1300.9364098,1302.936337,s,1,1.1258247000000665,P38,2023-07-10_15h39.22.524,StroopExp,2022.2.5,60.73928209811168,
b3,stroop_trial_condtions/b1.xlsx,0.832802100155878,0,incongruent,GREEN,red,a,distractors/silence.wav,,,,,0,2,2,2,0,33,33,41,1305.4351445000002,1307.4346363,a,1,1.0191251999999622,P38,2023-07-10_15h39.22.524,StroopExp,2022.2.5,60.73928209811168,
b3,stroop_trial_condtions/b1.xlsx,0.027168618358859753,0,incongruent,RED,yellow,f,distractors/silence.wav,,,,,0,2,2,2,0,34,34,27,1309.950209,1311.9497488000002,f,1,0.9973633999998128,P38,2023-07-10_15h39.22.524,StroopExp,2022.2.5,60.73928209811168,
b3,stroop_trial_condtions/b1.xlsx,0.15319618406080382,0,incongruent,YELLOW,green,s,distractors/silence.wav,,,,,0,2,2,2,0,35,35,31,1314.4332104999999,1316.433082,s,1,1.034399300000132,P38,2023-07-10_15h39.22.524,StroopExp,2022.2.5,60.73928209811168,
b3,stroop_trial_condtions/b1.xlsx,0.6671969061834688,0,incongruent,RED,green,s,distractors/silence.wav,,,,,0,2,2,2,0,36,36,36,1318.9331700000002,1320.9503935000002,s,1,0.9594480999999178,P38,2023-07-10_15h39.22.524,StroopExp,2022.2.5,60.73928209811168,
b3,stroop_trial_condtions/b1.xlsx,0.6869684900918854,0,congruent,YELLOW,yellow,f,distractors/silence.wav,,,,,0,2,2,2,0,37,37,45,1323.4457692,1325.4450361,f,1,1.0043299999997544,P38,2023-07-10_15h39.22.524,StroopExp,2022.2.5,60.73928209811168,
b3,stroop_trial_condtions/b1.xlsx,0.0729145768917061,0,congruent,BLUE,blue,d,distractors/silence.wav,,,,,0,2,2,2,0,38,38,3,1327.9440922,1329.9434099999999,d,1,0.8546523999998499,P38,2023-07-10_15h39.22.524,StroopExp,2022.2.5,60.73928209811168,
b3,stroop_trial_condtions/b1.xlsx,0.4930182611236916,0,congruent,BLUE,blue,d,distractors/silence.wav,,,,,0,2,2,2,0,39,39,7,1332.4427781,1334.4418611,d,1,0.8489678999999342,P38,2023-07-10_15h39.22.524,StroopExp,2022.2.5,60.73928209811168,
b3,stroop_trial_condtions/b1.xlsx,0.19133216126723684,0,congruent,GREEN,green,s,distractors/silence.wav,,,,,0,2,2,2,0,40,40,43,1336.9410333,1338.9403389,s,1,0.9405343000003086,P38,2023-07-10_15h39.22.524,StroopExp,2022.2.5,60.73928209811168,
b3,stroop_trial_condtions/b1.xlsx,0.4017822535991459,0,incongruent,YELLOW,red,a,distractors/silence.wav,,,,,0,2,2,2,0,41,41,12,1341.4730995999998,1343.4722296999998,a,1,1.0592044999998507,P38,2023-07-10_15h39.22.524,StroopExp,2022.2.5,60.73928209811168,
b3,stroop_trial_condtions/b1.xlsx,0.6252124205445847,0,congruent,GREEN,green,s,distractors/silence.wav,,,,,0,2,2,2,0,42,42,24,1345.9881696000002,1347.9872615,s,1,1.1607868000000963,P38,2023-07-10_15h39.22.524,StroopExp,2022.2.5,60.73928209811168,
b3,stroop_trial_condtions/b1.xlsx,0.19939336354685822,0,congruent,YELLOW,yellow,f,distractors/silence.wav,,,,,0,2,2,2,0,43,43,23,1350.5034953,,f,1,1.0362108999997872,P38,2023-07-10_15h39.22.524,StroopExp,2022.2.5,60.73928209811168,
b3,stroop_trial_condtions/b1.xlsx,0.5794916014066622,0,congruent,RED,red,a,distractors/silence.wav,,,,,0,2,2,2,0,44,44,47,1355.0180015,1357.0178727000002,a,1,1.393520599999647,P38,2023-07-10_15h39.22.524,StroopExp,2022.2.5,60.73928209811168,
b3,stroop_trial_condtions/b1.xlsx,0.8309483305278348,0,incongruent,BLUE,green,s,distractors/silence.wav,,,,,0,2,2,2,0,45,45,46,1359.5174200000001,1361.5172945,s,1,1.1926831000000675,P38,2023-07-10_15h39.22.524,StroopExp,2022.2.5,60.73928209811168,
b3,stroop_trial_condtions/b1.xlsx,0.7296842337577286,0,incongruent,BLUE,red,a,distractors/silence.wav,,,,,0,2,2,2,0,46,46,29,1364.0005824,1366.000496,a,1,1.2536225999997441,P38,2023-07-10_15h39.22.524,StroopExp,2022.2.5,60.73928209811168,
b3,stroop_trial_condtions/b1.xlsx,0.7336815417486652,0,incongruent,BLUE,green,s,distractors/silence.wav,,,,,0,2,2,2,0,47,47,15,1368.5006337,,s,1,0.95950589999984,P38,2023-07-10_15h39.22.524,StroopExp,2022.2.5,60.73928209811168,
b4,stroop_trial_condtions/b3.xlsx,0.8013414949294776,1,incongruent,BLUE,yellow,f,distractors/4.wav,,,,,0,3,3,3,0,0,0,4,1463.935501,,f,1,1.2209649000001264,P38,2023-07-10_15h39.22.524,StroopExp,2022.2.5,60.73928209811168,
b4,stroop_trial_condtions/b3.xlsx,0.46851590450319824,1,incongruent,YELLOW,green,s,distractors/1.wav,,,,,0,3,3,3,0,1,1,3,1468.4463928,,s,1,0.9939687999999478,P38,2023-07-10_15h39.22.524,StroopExp,2022.2.5,60.73928209811168,
b4,stroop_trial_condtions/b3.xlsx,0.9277064063263939,1,incongruent,BLUE,red,a,distractors/1.wav,,,,,0,3,3,3,0,2,2,32,1472.9618283,1474.9610087,a,1,0.9057487999998557,P38,2023-07-10_15h39.22.524,StroopExp,2022.2.5,60.73928209811168,
b4,stroop_trial_condtions/b3.xlsx,0.5078031949822321,1,congruent,YELLOW,yellow,f,distractors/3.wav,,,,,0,3,3,3,0,3,3,45,1477.4595465000002,1479.4595064999999,f,1,1.0336788999998134,P38,2023-07-10_15h39.22.524,StroopExp,2022.2.5,60.73928209811168,
b4,stroop_trial_condtions/b3.xlsx,0.22157820962509556,1,incongruent,RED,green,s,distractors/4.wav,,,,,0,3,3,3,0,4,4,26,1481.9755381999998,1483.9749551,s,1,1.0363523000000896,P38,2023-07-10_15h39.22.524,StroopExp,2022.2.5,60.73928209811168,
b4,stroop_trial_condtions/b3.xlsx,0.48808766913605917,1,congruent,RED,red,a,distractors/4.wav,,,,,0,3,3,3,0,5,5,38,1486.4732869999998,1488.4728389000002,a,1,0.7949548999999934,P38,2023-07-10_15h39.22.524,StroopExp,2022.2.5,60.73928209811168,
b4,stroop_trial_condtions/b3.xlsx,0.5091952837801443,1,congruent,RED,red,a,distractors/3.wav,,,,,0,3,3,3,0,6,6,23,1490.9886523999999,1492.9877372,a,1,1.601396300000033,P38,2023-07-10_15h39.22.524,StroopExp,2022.2.5,60.73928209811168,
b4,stroop_trial_condtions/b3.xlsx,0.6296527572668619,1,incongruent,GREEN,red,a,distractors/4.wav,,,,,0,3,3,3,0,7,7,24,1495.4876143000001,1497.4862375000002,a,1,0.9470391999998355,P38,2023-07-10_15h39.22.524,StroopExp,2022.2.5,60.73928209811168,
b4,stroop_trial_condtions/b3.xlsx,0.45744716647321115,1,congruent,RED,red,a,distractors/1.wav,,,,,0,3,3,3,0,8,8,41,1500.0020164000002,1502.0023427,a,1,0.8076985000002423,P38,2023-07-10_15h39.22.524,StroopExp,2022.2.5,60.73928209811168,
b4,stroop_trial_condtions/b3.xlsx,0.2532365547687505,1,congruent,GREEN,green,s,distractors/1.wav,,,,,0,3,3,3,0,9,9,10,1504.4855247,1506.4856208,s,1,0.8181668000001991,P38,2023-07-10_15h39.22.524,StroopExp,2022.2.5,60.73928209811168,
b4,stroop_trial_condtions/b3.xlsx,0.22948030212444814,1,congruent,YELLOW,yellow,f,distractors/3.wav,,,,,0,3,3,3,0,10,10,0,1508.9697649999998,1510.9825974999999,f,1,1.066578599999957,P38,2023-07-10_15h39.22.524,StroopExp,2022.2.5,60.73928209811168,
b4,stroop_trial_condtions/b3.xlsx,0.4256101321124697,1,congruent,BLUE,blue,d,distractors/4.wav,,,,,0,3,3,3,0,11,11,9,1513.4810493,1515.4811129,d,1,0.5865576000001056,P38,2023-07-10_15h39.22.524,StroopExp,2022.2.5,60.73928209811168,
b4,stroop_trial_condtions/b3.xlsx,0.5215658873690101,1,incongruent,YELLOW,blue,d,distractors/3.wav,,,,,0,3,3,3,0,12,12,14,1517.9798234999998,1519.9794066999998,d,1,0.6533615999996982,P38,2023-07-10_15h39.22.524,StroopExp,2022.2.5,60.73928209811168,
b4,stroop_trial_condtions/b3.xlsx,0.3378719033646135,1,incongruent,RED,yellow,f,distractors/4.wav,,,,,0,3,3,3,0,13,13,19,1522.4950222000002,1524.4945567,f,1,1.3770351000002847,P38,2023-07-10_15h39.22.524,StroopExp,2022.2.5,60.73928209811168,
b4,stroop_trial_condtions/b3.xlsx,0.010072895586636488,1,congruent,RED,red,a,distractors/4.wav,,,,,0,3,3,3,0,14,14,37,1526.9932426999999,1528.9928278000002,a,1,1.0006309999998848,P38,2023-07-10_15h39.22.524,StroopExp,2022.2.5,60.73928209811168,
b4,stroop_trial_condtions/b3.xlsx,0.8016808924679877,1,incongruent,YELLOW,red,a,distractors/3.wav,,,,,0,3,3,3,0,15,15,35,1531.5082849,1533.5079282000002,a,1,0.8941066000002138,P38,2023-07-10_15h39.22.524,StroopExp,2022.2.5,60.73928209811168,
b4,stroop_trial_condtions/b3.xlsx,0.568990759527847,1,congruent,BLUE,blue,d,distractors/3.wav,,,,,0,3,3,3,0,16,16,28,1536.0073997999998,,d,1,0.9488498999999138,P38,2023-07-10_15h39.22.524,StroopExp,2022.2.5,60.73928209811168,
b4,stroop_trial_condtions/b3.xlsx,0.21782885511366679,1,incongruent,GREEN,blue,d,distractors/1.wav,,,,,0,3,3,3,0,17,17,44,1540.5233506,,d,1,0.8416210000000319,P38,2023-07-10_15h39.22.524,StroopExp,2022.2.5,60.73928209811168,
b4,stroop_trial_condtions/b3.xlsx,0.9654449717548405,1,congruent,BLUE,blue,d,distractors/2.wav,,,,,0,3,3,3,0,18,18,2,1545.0368419000001,1547.0367675000002,d,1,0.7413743000001887,P38,2023-07-10_15h39.22.524,StroopExp,2022.2.5,60.73928209811168,
b4,stroop_trial_condtions/b3.xlsx,0.7943148249806823,1,incongruent,BLUE,red,a,distractors/1.wav,,,,,0,3,3,3,0,19,19,30,1549.5198156000001,1551.5200266000002,a,1,1.069873799999641,P38,2023-07-10_15h39.22.524,StroopExp,2022.2.5,60.73928209811168,
b4,stroop_trial_condtions/b3.xlsx,0.7591509381967968,1,congruent,YELLOW,yellow,f,distractors/3.wav,,,,,0,3,3,3,0,20,20,36,1554.0200663,1556.0202249,f,1,1.0506138000000647,P38,2023-07-10_15h39.22.524,StroopExp,2022.2.5,60.73928209811168,
b4,stroop_trial_condtions/b3.xlsx,0.0557810844842791,1,incongruent,RED,yellow,f,distractors/4.wav,,,,,0,3,3,3,0,21,21,43,1558.5165296999999,1560.5150853999999,f,1,1.0255489999999554,P38,2023-07-10_15h39.22.524,StroopExp,2022.2.5,60.73928209811168,
b4,stroop_trial_condtions/b3.xlsx,0.6000084328909321,1,congruent,BLUE,blue,d,distractors/3.wav,,,,,0,3,3,3,0,22,22,42,1563.0316718,1565.0306028,d,1,1.1405558999999812,P38,2023-07-10_15h39.22.524,StroopExp,2022.2.5,60.73928209811168,
b4,stroop_trial_condtions/b3.xlsx,0.10397582984293274,1,incongruent,BLUE,green,s,distractors/1.wav,,,,,0,3,3,3,0,23,23,47,1567.5464324999998,1569.5456137,s,1,0.9297695999998723,P38,2023-07-10_15h39.22.524,StroopExp,2022.2.5,60.73928209811168,
b4,stroop_trial_condtions/b3.xlsx,0.1398429663424724,1,congruent,GREEN,green,s,distractors/2.wav,,,,,0,3,3,3,0,24,24,8,1572.0451113,1574.0445045000001,s,1,0.6726475000000391,P38,2023-07-10_15h39.22.524,StroopExp,2022.2.5,60.73928209811168,
b4,stroop_trial_condtions/b3.xlsx,0.4909534620648366,1,congruent,GREEN,green,s,distractors/4.wav,,,,,0,3,3,3,0,25,25,1,1576.5604099000002,1578.5591227,s,1,0.7056508000000576,P38,2023-07-10_15h39.22.524,StroopExp,2022.2.5,60.73928209811168,
b4,stroop_trial_condtions/b3.xlsx,0.28983611898456463,1,incongruent,GREEN,yellow,f,distractors/2.wav,,,,,0,3,3,3,0,26,26,20,1581.0584013000002,1583.0576787,f,1,1.239662099999805,P38,2023-07-10_15h39.22.524,StroopExp,2022.2.5,60.73928209811168,
b4,stroop_trial_condtions/b3.xlsx,0.5042669091023176,1,congruent,BLUE,blue,d,distractors/2.wav,,,,,0,3,3,3,0,27,27,25,1585.5569606,1587.5565117,d,1,0.8511975000001257,P38,2023-07-10_15h39.22.524,StroopExp,2022.2.5,60.73928209811168,
b4,stroop_trial_condtions/b3.xlsx,0.4699973194550694,1,incongruent,YELLOW,red,a,distractors/2.wav,,,,,0,3,3,3,0,28,28,34,1590.0554241,1592.0547637999998,a,1,1.0528423000000657,P38,2023-07-10_15h39.22.524,StroopExp,2022.2.5,60.73928209811168,
b4,stroop_trial_condtions/b3.xlsx,0.4220278048678988,1,incongruent,YELLOW,green,s,distractors/2.wav,,,,,0,3,3,3,0,29,29,33,1594.5705106,1596.5705864000001,s,1,1.041513600000144,P38,2023-07-10_15h39.22.524,StroopExp,2022.2.5,60.73928209811168,
b4,stroop_trial_condtions/b3.xlsx,0.7415483131081879,1,congruent,YELLOW,yellow,f,distractors/1.wav,,,,,0,3,3,3,0,30,30,22,1599.0540061000002,1601.0541524,f,1,0.9618052999999236,P38,2023-07-10_15h39.22.524,StroopExp,2022.2.5,60.73928209811168,
b4,stroop_trial_condtions/b3.xlsx,0.9995126588586891,1,incongruent,GREEN,yellow,f,distractors/1.wav,,,,,0,3,3,3,0,31,31,39,1603.5538388999998,,f,1,0.9277283000001262,P38,2023-07-10_15h39.22.524,StroopExp,2022.2.5,60.73928209811168,
b4,stroop_trial_condtions/b3.xlsx,0.21440578937717747,1,incongruent,GREEN,red,a,distractors/4.wav,,,,,0,3,3,3,0,32,32,29,1608.0490998999999,1610.0485662,a,1,1.096612599999844,P38,2023-07-10_15h39.22.524,StroopExp,2022.2.5,60.73928209811168,
b4,stroop_trial_condtions/b3.xlsx,0.8711656555587126,1,congruent,YELLOW,yellow,f,distractors/1.wav,,,,,0,3,3,3,0,33,33,11,1612.5484018000002,1614.5476600000002,f,1,1.187449900000047,P38,2023-07-10_15h39.22.524,StroopExp,2022.2.5,60.73928209811168,
b4,stroop_trial_condtions/b3.xlsx,0.5524115762504958,1,incongruent,GREEN,blue,d,distractors/4.wav,,,,,0,3,3,3,0,34,34,15,1617.0629864000002,1619.0622541000002,d,1,1.1672730000000229,P38,2023-07-10_15h39.22.524,StroopExp,2022.2.5,60.73928209811168,
b4,stroop_trial_condtions/b3.xlsx,0.01763447907037896,1,incongruent,RED,blue,d,distractors/3.wav,,,,,0,3,3,3,0,35,35,31,1621.5782927999999,,d,1,1.0554553999995733,P38,2023-07-10_15h39.22.524,StroopExp,2022.2.5,60.73928209811168,
b4,stroop_trial_condtions/b3.xlsx,0.5121364174675235,1,congruent,BLUE,blue,d,distractors/3.wav,,,,,0,3,3,3,0,36,36,40,1626.0931037999999,1628.0925657000003,d,1,0.7170175000001109,P38,2023-07-10_15h39.22.524,StroopExp,2022.2.5,60.73928209811168,
b4,stroop_trial_condtions/b3.xlsx,0.8543495536120658,1,congruent,YELLOW,yellow,f,distractors/3.wav,,,,,0,3,3,3,0,37,37,27,1630.5918723999998,,f,1,0.8840619000002334,P38,2023-07-10_15h39.22.524,StroopExp,2022.2.5,60.73928209811168,
b4,stroop_trial_condtions/b3.xlsx,0.38862864409579867,1,congruent,RED,red,a,distractors/4.wav,,,,,0,3,3,3,0,38,38,17,1635.0903042999998,1637.0897086,a,1,1.0063365999999405,P38,2023-07-10_15h39.22.524,StroopExp,2022.2.5,60.73928209811168,
b4,stroop_trial_condtions/b3.xlsx,0.610353600261409,1,incongruent,RED,green,s,distractors/2.wav,,,,,0,3,3,3,0,39,39,16,1639.6054920000001,1641.6051513000002,s,1,1.0142565999999533,P38,2023-07-10_15h39.22.524,StroopExp,2022.2.5,60.73928209811168,
b4,stroop_trial_condtions/b3.xlsx,0.264144016402854,1,congruent,RED,red,a,distractors/2.wav,,,,,0,3,3,3,0,40,40,6,1644.1214381999998,1646.1213603,a,1,0.9400906000000759,P38,2023-07-10_15h39.22.524,StroopExp,2022.2.5,60.73928209811168,
b4,stroop_trial_condtions/b3.xlsx,0.6771707449380959,1,congruent,GREEN,green,s,distractors/1.wav,,,,,0,3,3,3,0,41,41,5,1648.6048603,1650.6049512,s,1,1.0066694000001917,P38,2023-07-10_15h39.22.524,StroopExp,2022.2.5,60.73928209811168,
b4,stroop_trial_condtions/b3.xlsx,0.3048901609321858,1,incongruent,BLUE,green,s,distractors/1.wav,,,,,0,3,3,3,0,42,42,21,1653.100751,1655.100046,s,1,0.9194912999996632,P38,2023-07-10_15h39.22.524,StroopExp,2022.2.5,60.73928209811168,
b4,stroop_trial_condtions/b3.xlsx,0.8010105832360127,1,incongruent,RED,blue,d,distractors/2.wav,,,,,0,3,3,3,0,43,43,13,1657.5992993,1659.5987490000002,d,1,0.9807989999999336,P38,2023-07-10_15h39.22.524,StroopExp,2022.2.5,60.73928209811168,
b4,stroop_trial_condtions/b3.xlsx,0.09103571529527676,1,incongruent,BLUE,yellow,f,distractors/3.wav,,,,,0,3,3,3,0,44,44,7,1662.0977884,1664.0970026,f,1,0.9398796999998922,P38,2023-07-10_15h39.22.524,StroopExp,2022.2.5,60.73928209811168,
b4,stroop_trial_condtions/b3.xlsx,0.5857626834280144,1,congruent,GREEN,green,s,distractors/2.wav,,,,,0,3,3,3,0,45,45,18,1666.5961647,1668.5956557999998,s,1,1.0219960000003994,P38,2023-07-10_15h39.22.524,StroopExp,2022.2.5,60.73928209811168,
b4,stroop_trial_condtions/b3.xlsx,0.5858254357624116,1,incongruent,YELLOW,blue,d,distractors/2.wav,,,,,0,3,3,3,0,46,46,12,1671.1108675,1673.1103438,d,1,0.9354332000002614,P38,2023-07-10_15h39.22.524,StroopExp,2022.2.5,60.73928209811168,
b4,stroop_trial_condtions/b3.xlsx,0.7490878176166669,1,congruent,GREEN,green,s,distractors/2.wav,,,,,0,3,3,3,0,47,47,46,1675.6097370000002,1677.6095194999998,s,1,0.8566099999998187,P38,2023-07-10_15h39.22.524,StroopExp,2022.2.5,60.73928209811168,
